Subject,Round,Phase,afterbreak,Schema,Schema_RT,Schema_OB,Schema_AS,Cho_1,Cho_2,Cho_3,Cho_4,RT_1,RT_2,RT_3,RT_4,OB_1,OB_2,OB_3,OB_4,AS_1,AS_2,AS_3,AS_4,schema_payoff,AC,performance,payoff,breakR,type,dwellmean_1,dwellmean_2,dwellmean_3,dwellmean_4
1,1,1,0,7,18.909999999999986,17,95,13,23,20,40,19.824999999999985,0.061,2.3789999999999982,1.2199999999999993,18,1,14,1,96,1,17,1,6,0.5,41,5.75,6,L,0.20651041666666664,0.061,0.13994117647058824,1.2199999999999993
1,1,2,0,3,28.608999999999977,19,118,25,36,27,28,30.194999999999975,1.8909999999999987,1.2809999999999993,5.7339999999999955,20,6,3,16,125,6,5,27,5,1,60,5,6,L,0.24155999999999997,0.31516666666666665,0.2562,0.21237037037037035
1,2,3,0,10,13.785999999999989,18,66,94,90,64,91,15.005999999999988,0.488,19.397999999999985,0.7319999999999998,20,3,17,3,73,3,69,3,3,0.5,22,3.25,6,L,0.20556164383561643,0.16266666666666665,0.28113043478260863,0.24399999999999997
1,2,4,0,3,20.129999999999985,18,99,27,33,34,36,22.935999999999982,0.122,6.709999999999995,0.305,20,1,15,2,110,1,32,2,5,1,60,5,6,L,0.2085090909090909,0.122,0.20968749999999997,0.1525
1,3,5,0,6,13.29799999999999,13,68,4,9,27,30,13.35899999999999,11.345999999999991,8.539999999999994,0.366,14,15,14,3,69,41,28,3,6,0,22,5.5,6,L,0.1936086956521739,0.27673170731707314,0.305,0.122
1,3,6,0,1,16.835999999999988,20,89,80,75,81,55,17.201999999999988,1.2809999999999993,0.305,7.319999999999994,20,5,1,15,91,5,1,35,3,0.5,22,3.25,6,L,0.18903296703296704,0.25619999999999993,0.305,0.2091428571428571
1,4,7,0,6,8.600999999999994,15,47,1,3,37,73,10.796999999999992,0.6099999999999999,28.791999999999977,0.122,20,4,16,1,58,4,106,1,6,0,20,5,6,L,0.1861551724137931,0.1525,0.27162264150943394,0.122
1,4,8,0,2,55.997999999999955,17,244,49,56,58,18,56.912999999999954,2.3179999999999983,0.8539999999999996,0.9759999999999995,20,8,4,6,249,12,4,6,4,0.5,30,4.5,6,L,0.22856626506024094,0.19316666666666665,0.2135,0.16266666666666665
1,5,9,0,10,15.249999999999988,16,75,85,93,86,88,16.530999999999988,0.5489999999999999,3.537999999999997,1.2809999999999993,20,2,13,4,80,4,19,4,3,1,36,3,6,L,0.20663749999999997,0.13724999999999998,0.18621052631578947,0.3202499999999999
1,5,10,0,3,19.153999999999986,18,85,31,34,3,35,19.214999999999986,5.062999999999996,9.088999999999993,3.903999999999997,19,8,18,11,86,11,45,13,5,0.5,36,5.25,6,L,0.2234302325581395,0.46027272727272717,0.20197777777777776,0.3003076923076923
2,1,1,0,2,38.30799999999997,18,174,49,58,4,41,41.11399999999997,2.0129999999999986,1.7079999999999989,4.208999999999997,20,6,6,11,183,8,7,17,4,0,19,4.75,6,L,0.22466666666666665,0.251625,0.24399999999999997,0.2475882352941176
2,1,2,0,4,14.090999999999989,18,67,99,20,17,102,15.371999999999987,12.01699999999999,1.9519999999999986,0.122,20,19,5,2,72,63,6,2,2,0,16,4,6,L,0.2135,0.19074603174603175,0.3253333333333333,0.061
2,2,3,0,10,23.66799999999998,20,110,90,91,85,89,24.58299999999998,0.427,0.427,0.7929999999999997,20,2,3,5,114,2,3,5,3,1,36,3,6,L,0.21564035087719297,0.2135,0.14233333333333334,0.1586
2,2,4,0,8,24.82699999999998,18,113,117,110,118,109,26.22999999999998,1.0979999999999994,0.366,1.8299999999999987,20,2,4,5,118,2,4,6,2,1,24,2,6,L,0.22228813559322033,0.5489999999999998,0.0915,0.30499999999999994
2,3,5,0,1,29.645999999999976,17,123,80,84,78,52,29.950999999999976,0.427,3.3549999999999973,3.537999999999997,20,4,11,8,126,4,15,14,3,0.5,22,3.25,6,L,0.23770634920634917,0.10675,0.22366666666666665,0.25271428571428567
2,3,6,0,10,35.562999999999974,18,153,69,90,42,93,38.97899999999997,1.8299999999999987,2.0129999999999986,0.183,20,5,7,1,165,6,8,1,3,0,15,3.75,6,L,0.2362363636363636,0.30499999999999994,0.251625,0.183
2,4,7,0,8,37.14899999999997,20,152,115,120,57,110,38.36899999999997,0.8539999999999996,3.0499999999999976,0.244,20,5,7,1,157,6,9,1,2,0.5,16,2.5,6,L,0.2443885350318471,0.14233333333333334,0.3388888888888888,0.244
2,4,8,0,1,29.584999999999976,17,149,12,84,76,83,33.610999999999976,0.061,0.122,0.305,20,1,2,2,164,1,2,2,3,0.5,24,3.75,6,L,0.2049451219512195,0.061,0.061,0.1525
2,5,9,0,8,29.828999999999976,16,137,15,68,112,114,36.90499999999997,10.125999999999992,4.208999999999997,1.2809999999999993,20,19,13,5,161,52,19,6,2,0,14,3.5,6,L,0.22922360248447202,0.19473076923076924,0.22152631578947365,0.2135
2,5,10,0,2,13.602999999999989,19,63,3,1,87,103,50.44699999999996,0.6709999999999998,0.061,0.305,20,3,1,3,212,5,1,3,4,0,17,4.25,6,L,0.2379575471698113,0.13419999999999999,0.061,0.10166666666666667
3,1,1,0,8,15.920999999999987,18,75,118,115,116,37,18.665999999999986,0.9759999999999995,0.061,14.639999999999988,20,4,1,16,86,5,1,66,2,0.5,17,2.75,6,L,0.21704651162790695,0.19519999999999998,0.061,0.2218181818181818
3,1,2,0,9,25.43699999999998,17,115,72,67,12,65,25.55899999999998,0.5489999999999999,0.7319999999999998,3.476999999999997,19,2,1,13,117,2,1,17,4,0.5,30,4.5,6,L,0.21845299145299144,0.27449999999999997,0.7319999999999998,0.20452941176470585
3,2,3,0,4,25.98599999999998,20,130,100,103,105,101,26.71799999999998,0.122,1.0369999999999995,1.7079999999999989,20,1,5,3,133,1,5,3,2,1,24,2,6,L,0.20088721804511278,0.122,0.20739999999999997,0.5693333333333332
3,2,4,0,10,32.08599999999998,19,158,93,87,89,90,35.623999999999974,0.122,0.122,1.0369999999999995,20,1,1,4,175,1,1,4,3,1,36,3,6,L,0.20356571428571427,0.122,0.122,0.25925
3,3,5,0,8,18.360999999999986,15,84,115,112,111,118,19.397999999999985,1.0979999999999994,0.9149999999999996,0.9759999999999995,20,5,3,4,89,6,4,5,2,1,24,2,6,L,0.21795505617977526,0.183,0.22875,0.19519999999999998
3,3,6,0,10,18.177999999999987,18,85,90,85,16,18,19.397999999999985,2.1959999999999984,12.80999999999999,3.842999999999997,20,10,16,10,90,13,40,14,3,0,18,4.5,6,L,0.21553333333333333,0.16892307692307693,0.3202499999999999,0.27449999999999997
3,4,7,0,6,19.336999999999986,20,96,5,9,8,10,19.763999999999985,1.3419999999999992,1.2199999999999993,13.11499999999999,20,5,6,16,100,5,7,50,6,1,72,6,6,L,0.19763999999999998,0.26839999999999997,0.1742857142857143,0.2623
3,4,8,0,1,12.87099999999999,17,60,76,78,82,101,26.53499999999998,4.818999999999996,0.427,5.062999999999996,20,16,4,11,120,25,4,20,3,0.5,20,2.75,6,L,0.221125,0.19276,0.10675,0.25315
3,5,9,0,7,37.75899999999997,20,179,16,20,13,15,38.30799999999997,0.305,6.221999999999995,2.8669999999999978,20,4,11,8,182,4,27,11,6,1,72,6,6,L,0.21048351648351646,0.07625,0.23044444444444442,0.2606363636363636
3,5,10,0,6,18.909999999999986,19,86,2,12,1,8,21.044999999999984,2.683999999999998,0.5489999999999999,3.903999999999997,20,9,2,11,97,12,2,21,6,1,72,6,6,L,0.21695876288659793,0.22366666666666665,0.27449999999999997,0.18590476190476188
4,1,1,0,8,22.325999999999983,19,102,119,109,31,5,24.15599999999998,1.0369999999999995,7.563999999999994,0.305,20,4,15,1,110,4,31,1,2,0,15,3.75,6,L,0.2196,0.25925,0.244,0.305
4,1,2,0,9,20.068999999999985,20,98,65,71,67,44,24.09499999999998,0.5489999999999999,0.6099999999999999,3.2939999999999974,20,4,4,9,116,4,4,14,4,0.5,29,4.25,6,L,0.2077155172413793,0.13724999999999998,0.1525,0.23528571428571426
4,2,3,0,7,23.85099999999998,19,123,13,60,15,38,27.388999999999978,2.9279999999999977,9.393999999999993,0.9759999999999995,20,13,13,5,135,16,32,6,6,0,21,5.25,6,L,0.20288148148148147,0.183,0.29356249999999995,0.16266666666666665
4,2,4,0,9,25.86399999999998,18,118,69,68,6,33,30.255999999999975,2.3179999999999983,2.2569999999999983,4.879999999999996,20,11,7,17,138,15,9,30,4,0,19,4.75,6,L,0.21924637681159417,0.15453333333333333,0.25077777777777777,0.16266666666666665
4,3,5,0,6,20.434999999999985,19,100,1,12,61,69,20.495999999999984,1.4029999999999991,5.550999999999996,9.881999999999993,20,7,15,15,101,7,30,41,6,0,20,5,6,L,0.20293069306930692,0.20042857142857143,0.18503333333333333,0.24102439024390243
4,3,6,0,7,10.979999999999992,18,52,19,23,20,21,20.312999999999985,1.1589999999999994,0.366,2.0129999999999986,20,6,3,3,88,6,3,4,6,1,72,6,6,L,0.23082954545454545,0.19316666666666665,0.122,0.5032499999999998
4,4,7,0,7,19.946999999999985,19,84,24,23,14,19,22.386999999999983,0.7319999999999998,0.427,5.306999999999996,20,4,2,9,93,4,2,22,6,1,72,6,6,L,0.24072043010752686,0.183,0.2135,0.24122727272727273
4,4,8,0,2,19.031999999999986,16,95,56,59,50,112,19.580999999999985,1.524999999999999,1.524999999999999,5.184999999999996,19,4,6,15,98,5,6,29,4,0.5,26,3.5,6,L,0.19980612244897958,0.30499999999999994,0.25416666666666665,0.17879310344827584
4,5,9,0,10,16.16499999999999,19,68,90,1,7,86,22.020999999999983,11.589999999999991,0.5489999999999999,0.122,20,17,5,1,86,49,6,1,3,0,18,4.5,6,L,0.2560581395348837,0.23653061224489794,0.0915,0.122
4,5,10,0,7,10.613999999999992,16,59,21,16,13,26,12.07799999999999,0.5489999999999999,1.2199999999999993,53.31399999999996,20,2,6,16,65,2,9,235,6,0.5,41,5.75,6,L,0.1858153846153846,0.27449999999999997,0.13555555555555554,0.22686808510638296
5,1,1,0,1,12.62699999999999,13,45,77,79,76,78,13.41999999999999,0.061,0.122,3.0499999999999976,18,1,1,8,50,1,1,14,3,1,36,3,6,L,0.26839999999999997,0.061,0.122,0.21785714285714283
5,1,2,0,10,18.970999999999986,20,81,88,94,26,96,19.641999999999985,3.659999999999997,4.208999999999997,0.244,20,11,12,3,85,18,17,3,3,0.5,23,3.5,6,L,0.23108235294117646,0.2033333333333333,0.2475882352941176,0.08133333333333333
5,2,3,0,7,19.580999999999985,18,85,24,14,23,20,20.312999999999985,4.452999999999997,0.9759999999999995,1.2199999999999993,20,13,2,6,90,24,2,6,6,1,72,6,6,L,0.22569999999999998,0.18554166666666666,0.48799999999999977,0.20333333333333334
5,2,4,0,9,25.92499999999998,19,115,70,67,7,41,28.059999999999977,2.439999999999998,2.561999999999998,3.2939999999999974,20,12,9,10,123,14,12,18,4,0,19,4.75,6,L,0.228130081300813,0.1742857142857143,0.21349999999999997,0.183
5,3,5,0,2,31.841999999999974,19,138,50,84,51,56,33.732999999999976,4.574999999999997,1.463999999999999,0.488,20,11,4,4,148,21,4,4,4,0.5,27,3.75,6,L,0.22792567567567565,0.21785714285714283,0.366,0.122
5,3,6,0,9,17.140999999999988,16,87,71,67,66,31,17.933999999999987,0.7319999999999998,0.427,6.038999999999995,20,2,2,12,91,2,2,24,4,0.5,29,4.25,6,L,0.19707692307692307,0.366,0.2135,0.251625
5,4,7,0,7,21.471999999999984,12,94,13,15,16,18,22.508999999999983,1.0979999999999994,4.269999999999997,0.061,17,4,11,1,100,4,18,1,6,1,72,6,6,L,0.22508999999999998,0.2744999999999999,0.23722222222222217,0.061
5,4,8,0,6,15.615999999999987,15,77,3,1,4,42,15.920999999999987,11.040999999999991,2.439999999999998,0.9759999999999995,18,16,10,1,80,40,12,4,6,0.5,41,5.75,6,L,0.19901249999999998,0.27602499999999996,0.20333333333333334,0.24399999999999994
5,5,9,0,2,26.10799999999998,16,114,56,16,49,20,32.32999999999998,0.8539999999999996,3.9649999999999967,2.1349999999999985,20,4,11,7,132,6,13,9,4,0,20,5,6,L,0.2449242424242424,0.14233333333333334,0.30499999999999994,0.2372222222222222
5,5,10,0,5,23.85099999999998,19,117,48,37,38,43,26.35199999999998,0.061,2.0739999999999985,0.6099999999999999,20,1,8,2,129,1,10,2,5,1,60,5,6,L,0.20427906976744184,0.061,0.20739999999999995,0.305
6,1,1,0,4,17.445999999999987,18,88,105,100,72,103,18.116999999999987,0.8539999999999996,9.332999999999993,3.3549999999999973,20,3,16,13,91,3,41,19,2,0.5,16,2.5,6,L,0.19908791208791207,0.2846666666666667,0.2276341463414634,0.17657894736842106
6,1,2,0,2,18.848999999999986,18,94,51,91,55,58,19.397999999999985,12.26099999999999,3.3549999999999973,1.8299999999999987,20,13,8,11,96,45,9,12,4,0.5,27,3.75,6,L,0.20206249999999998,0.27246666666666663,0.3727777777777777,0.1525
6,2,3,0,4,23.60699999999998,20,102,99,98,51,108,25.19299999999998,2.9889999999999977,5.123999999999996,6.709999999999995,20,10,13,16,108,14,20,29,2,0.5,16,2.5,6,L,0.2332685185185185,0.21349999999999997,0.2562,0.23137931034482756
6,2,4,0,1,20.495999999999984,19,97,84,82,81,76,22.142999999999983,0.305,1.4029999999999991,0.9759999999999995,20,2,5,3,110,3,6,4,3,1,36,3,6,L,0.20129999999999998,0.10166666666666667,0.23383333333333334,0.244
6,3,5,0,8,20.007999999999985,13,85,111,118,115,114,20.312999999999985,0.244,4.086999999999997,1.2199999999999993,15,3,11,5,87,3,17,6,2,1,24,2,6,L,0.23348275862068962,0.08133333333333333,0.24041176470588235,0.20333333333333334
6,3,6,0,10,16.04299999999999,18,78,95,87,66,21,16.22599999999999,3.903999999999997,6.8319999999999945,2.744999999999998,20,9,12,8,80,16,30,12,3,0,16,4,6,L,0.20282499999999998,0.244,0.22773333333333332,0.22875
6,4,7,0,9,22.142999999999983,20,114,64,62,36,17,23.057999999999982,8.051999999999994,4.208999999999997,9.759999999999993,20,16,13,15,120,39,18,35,4,0,19,4.75,6,L,0.19215,0.20646153846153845,0.23383333333333328,0.2788571428571428
6,4,8,0,4,14.578999999999988,18,66,1,106,98,105,25.43699999999998,0.122,2.1349999999999985,1.1589999999999994,20,1,8,5,114,1,9,6,2,0.5,18,3,6,L,0.2231315789473684,0.122,0.23722222222222214,0.19316666666666665
6,5,9,0,8,14.456999999999988,19,76,111,49,112,22,16.591999999999988,2.3179999999999983,0.061,5.672999999999996,20,4,1,12,91,7,1,22,2,0,14,3.5,6,L,0.18232967032967032,0.33114285714285707,0.061,0.25786363636363635
6,5,10,0,6,30.987999999999975,20,132,3,34,30,104,31.048999999999975,10.369999999999992,0.6709999999999998,1.524999999999999,20,18,5,5,133,48,5,5,6,0,18,4.5,6,L,0.23345112781954885,0.21604166666666663,0.13419999999999999,0.305
7,1,1,0,10,35.867999999999974,18,143,89,88,91,86,38.97899999999997,0.6099999999999999,0.6709999999999998,1.0369999999999995,20,4,2,4,156,5,3,4,3,1,36,3,6,L,0.2498653846153846,0.122,0.22366666666666665,0.25925
7,1,2,0,1,32.45199999999998,18,147,81,84,73,16,33.061999999999976,0.7319999999999998,0.7319999999999998,3.2939999999999974,20,4,3,9,150,4,3,11,3,0.5,24,3.75,6,L,0.2204133333333333,0.183,0.24399999999999997,0.29945454545454536
7,2,3,0,8,33.915999999999976,18,153,120,117,116,110,34.525999999999975,1.3419999999999992,0.183,1.8909999999999987,20,4,1,8,155,4,1,10,2,1,24,2,6,L,0.22274838709677416,0.3354999999999999,0.183,0.1891
7,2,4,0,5,30.377999999999975,19,157,47,2,3,61,38.36899999999997,6.709999999999995,0.7319999999999998,0.488,20,17,4,1,196,34,4,1,5,0,21,5.25,6,L,0.19576020408163264,0.19735294117647056,0.183,0.488
7,3,5,0,8,29.340999999999976,19,138,111,120,115,109,29.584999999999976,0.244,2.439999999999998,1.646999999999999,20,1,8,9,140,1,8,9,2,1,24,2,6,L,0.21132142857142855,0.244,0.305,0.183
7,3,6,0,7,24.64399999999998,16,120,14,23,53,24,24.70499999999998,4.208999999999997,8.539999999999994,3.1109999999999975,17,14,16,10,121,19,44,14,6,0.5,40,5.5,6,L,0.20417355371900825,0.22152631578947363,0.1940909090909091,0.2222142857142857
7,4,7,0,2,15.554999999999987,19,87,51,4,55,29,16.16499999999999,12.19999999999999,0.183,7.990999999999993,20,17,2,15,90,57,2,32,4,0,19,4.75,6,L,0.1796111111111111,0.21403508771929822,0.0915,0.24971875
7,4,8,0,1,27.388999999999978,20,137,82,76,23,78,28.730999999999977,3.1109999999999975,2.561999999999998,1.463999999999999,20,8,5,4,145,11,6,5,3,0.5,24,3.75,6,L,0.19814482758620688,0.2828181818181818,0.42699999999999994,0.29279999999999995
7,5,9,0,5,9.942999999999993,19,54,19,14,22,44,22.874999999999982,39.89399999999997,3.903999999999997,0.488,20,19,11,4,104,153,17,5,5,0.5,41,5.75,6,L,0.21995192307692304,0.26074509803921564,0.22964705882352937,0.09759999999999999
7,5,10,0,3,13.29799999999999,17,71,27,2,3,29,14.212999999999989,30.011999999999976,0.305,1.2809999999999993,20,19,3,3,79,109,3,3,5,0,22,5.5,6,L,0.1799113924050633,0.27533944954128436,0.10166666666666667,0.4269999999999998
8,1,1,0,8,15.981999999999987,19,88,4,112,117,28,29.523999999999976,0.061,0.061,0.366,20,1,1,2,157,1,1,2,2,0,15,3.75,6,L,0.18805095541401273,0.061,0.061,0.183
8,1,2,0,2,17.445999999999987,19,93,49,58,54,14,19.702999999999985,1.4029999999999991,0.6709999999999998,4.208999999999997,20,6,4,10,103,7,5,15,4,0.5,30,4.5,6,L,0.19129126213592232,0.20042857142857143,0.13419999999999999,0.28059999999999996
8,2,3,0,8,29.035999999999976,17,123,114,117,34,9,29.157999999999976,2.2569999999999983,1.0369999999999995,3.476999999999997,18,9,3,5,124,10,3,10,2,0,15,3.75,6,L,0.23514516129032256,0.22569999999999998,0.3456666666666666,0.34769999999999995
8,2,4,0,5,42.39499999999997,14,180,41,44,17,14,44.224999999999966,0.061,3.9649999999999967,6.465999999999995,20,1,11,14,186,1,18,22,5,0,22,5.5,6,L,0.23776881720430107,0.061,0.22027777777777777,0.2939090909090909
8,3,5,0,1,15.249999999999988,20,80,78,57,27,80,16.16499999999999,5.001999999999996,3.9649999999999967,2.500999999999998,20,11,11,9,83,20,14,13,3,0,15,3.75,6,L,0.19475903614457832,0.2501,0.2832142857142857,0.19238461538461538
8,3,6,0,5,17.811999999999987,19,78,96,85,113,111,47.45799999999996,0.427,2.561999999999998,0.9149999999999996,20,2,9,4,196,2,12,4,5,0,10,2.5,6,L,0.24213265306122447,0.2135,0.21349999999999997,0.22875
8,4,7,0,1,29.401999999999976,20,130,81,21,117,82,30.621999999999975,3.720999999999997,1.2809999999999993,2.3179999999999983,20,12,3,8,134,15,3,13,3,0,14,3.5,6,L,0.22852238805970146,0.24806666666666666,0.42699999999999994,0.1783076923076923
8,4,8,0,10,61.97599999999995,15,239,68,90,46,37,64.59899999999995,1.3419999999999992,1.2199999999999993,3.781999999999997,20,6,6,13,247,7,7,21,3,0,17,4.25,6,L,0.26153441295546553,0.1917142857142857,0.1742857142857143,0.18009523809523809
8,5,9,0,5,17.567999999999987,20,75,47,46,48,75,19.519999999999985,10.369999999999992,2.439999999999998,0.122,20,16,10,2,84,45,13,2,5,0.5,33,4.5,6,L,0.23238095238095235,0.23044444444444442,0.18769230769230769,0.061
8,5,10,0,7,18.787999999999986,16,82,13,15,16,33,18.848999999999986,1.7689999999999988,3.1109999999999975,3.659999999999997,17,8,10,10,83,9,11,15,6,0.5,41,5.75,6,L,0.22709638554216866,0.19655555555555554,0.2828181818181818,0.24399999999999994
9,1,1,0,2,26.41299999999998,20,130,57,50,45,3,26.83999999999998,0.8539999999999996,2.0739999999999985,4.452999999999997,20,3,3,10,132,4,4,15,4,0,19,4.75,6,L,0.2033333333333333,0.2135,0.5184999999999998,0.2968666666666666
9,1,2,0,4,36.41699999999997,20,178,103,97,104,101,37.08799999999997,1.524999999999999,0.366,2.0739999999999985,20,5,3,7,182,7,3,7,2,1,24,2,6,L,0.20378021978021976,0.21785714285714286,0.122,0.2962857142857142
9,2,3,0,2,29.767999999999976,15,117,58,51,30,53,31.170999999999975,0.305,13.48099999999999,0.7929999999999997,20,2,14,4,123,2,50,4,4,0.5,29,4.25,6,L,0.25342276422764226,0.1525,0.26961999999999997,0.19824999999999998
9,2,4,0,1,20.861999999999984,20,90,78,74,81,43,22.935999999999982,0.061,14.029999999999989,2.561999999999998,20,1,18,11,104,1,55,16,3,0.5,23,3.5,6,L,0.22053846153846152,0.061,0.25509090909090903,0.160125
9,3,5,0,3,20.983999999999984,16,95,27,26,28,14,22.386999999999983,3.2939999999999974,5.489999999999996,3.2939999999999974,20,11,15,13,101,19,27,19,5,0.5,36,5.25,6,L,0.22165346534653463,0.1733684210526316,0.2033333333333333,0.17336842105263156
9,3,6,0,4,16.591999999999988,20,75,106,105,100,97,17.323999999999987,1.4029999999999991,0.7929999999999997,0.122,20,4,6,1,77,6,8,1,2,1,24,2,6,L,0.22498701298701296,0.23383333333333328,0.09912499999999999,0.122
9,4,7,0,9,31.841999999999974,18,139,66,70,12,65,35.257999999999974,2.683999999999998,10.125999999999992,0.061,20,8,15,1,154,14,34,1,4,0.5,30,4.5,6,L,0.22894805194805193,0.1917142857142857,0.29782352941176465,0.061
9,4,8,0,7,19.031999999999986,18,81,14,16,18,26,20.068999999999985,2.2569999999999983,3.598999999999997,2.1959999999999984,20,6,6,7,89,6,7,9,6,0.5,41,5.75,6,L,0.2254943820224719,0.37616666666666665,0.514142857142857,0.24399999999999997
9,5,9,0,9,30.133999999999975,19,126,62,97,27,14,30.316999999999975,14.517999999999988,2.0129999999999986,18.238999999999987,20,17,5,15,129,49,7,60,4,0,17,4.25,6,L,0.23501550387596898,0.29628571428571426,0.28757142857142853,0.30398333333333327
9,5,10,0,2,24.70499999999998,16,113,60,53,59,44,28.364999999999977,2.0129999999999986,1.3419999999999992,11.101999999999991,20,6,9,14,129,7,10,42,4,0.5,29,4.25,6,L,0.21988372093023253,0.28757142857142853,0.13419999999999999,0.26433333333333325
10,1,1,0,8,27.693999999999978,19,119,51,119,114,8,29.157999999999976,1.0369999999999995,8.661999999999994,2.3179999999999983,20,2,13,9,123,2,33,10,2,0,14,3.5,6,L,0.23705691056910566,0.5184999999999997,0.2624848484848485,0.2318
10,1,2,0,4,20.129999999999985,19,105,102,100,98,43,21.776999999999983,1.4029999999999991,0.305,0.488,20,7,3,5,110,8,3,5,2,0.5,17,2.75,6,L,0.19797272727272727,0.175375,0.10166666666666667,0.09759999999999999
10,2,3,0,5,26.59599999999998,20,132,42,45,46,13,28.364999999999977,0.7319999999999998,0.5489999999999999,3.4159999999999973,20,5,3,10,139,5,3,11,5,0.5,36,5.25,6,L,0.20406474820143883,0.1464,0.183,0.3105454545454545
10,2,4,0,6,21.593999999999983,20,113,10,9,1,5,23.057999999999982,2.9889999999999977,2.8669999999999978,1.646999999999999,20,9,11,11,120,13,15,11,6,1,72,6,6,L,0.19215,0.2299230769230769,0.19113333333333332,0.14972727272727274
10,3,5,0,6,7.807999999999994,13,37,1,5,6,9,8.783999999999994,0.5489999999999999,2.1349999999999985,0.366,19,3,8,4,43,3,11,4,6,1,72,6,6,L,0.20427906976744184,0.183,0.19409090909090906,0.0915
10,3,6,0,10,25.80299999999998,17,110,93,87,92,115,26.53499999999998,0.9759999999999995,4.208999999999997,4.147999999999997,20,3,10,15,113,3,15,22,3,0.5,20,2.75,6,L,0.2348230088495575,0.3253333333333333,0.28059999999999996,0.18854545454545454
10,4,7,0,2,14.822999999999988,17,78,50,28,80,101,18.665999999999986,19.763999999999985,15.859999999999987,3.659999999999997,20,19,17,11,90,100,79,14,4,0,14,3.5,6,L,0.20739999999999997,0.19763999999999998,0.20075949367088605,0.26142857142857134
10,4,8,0,10,14.700999999999988,19,79,91,96,119,71,15.615999999999987,0.366,12.68799999999999,0.061,20,1,16,1,83,1,62,1,3,0,12,3,6,L,0.188144578313253,0.366,0.20464516129032256,0.061
10,5,9,0,9,45.444999999999965,16,197,67,70,12,93,46.176999999999964,3.2939999999999974,3.9649999999999967,0.488,20,11,12,2,203,12,20,2,4,0,17,4.25,6,L,0.22747290640394086,0.27449999999999997,0.19824999999999998,0.244
10,5,10,0,7,6.587999999999995,11,36,20,14,22,24,6.648999999999995,4.879999999999996,0.366,0.7929999999999997,12,11,3,4,37,17,3,4,6,1,72,6,6,L,0.1797027027027027,0.2870588235294117,0.122,0.19824999999999998
11,1,1,0,6,20.251999999999985,20,100,6,71,80,34,31.292999999999978,0.7929999999999997,1.0369999999999995,4.879999999999996,20,3,1,11,141,3,1,20,6,0,18,4.5,6,L,0.22193617021276593,0.2643333333333333,1.0369999999999995,0.24399999999999997
11,1,2,0,5,16.957999999999988,16,81,48,41,38,43,19.885999999999985,0.9759999999999995,0.305,0.183,20,5,3,2,96,6,3,2,5,1,60,5,6,L,0.2071458333333333,0.16266666666666665,0.10166666666666667,0.0915
11,2,3,0,5,16.22599999999999,18,82,47,46,58,56,18.665999999999986,1.8299999999999987,4.818999999999996,1.463999999999999,20,6,11,2,90,6,18,2,5,0,18,4.5,6,L,0.20739999999999997,0.30499999999999994,0.2677222222222222,0.7319999999999998
11,2,4,0,4,15.615999999999987,20,78,108,107,68,79,17.445999999999987,0.244,3.2329999999999974,2.0129999999999986,20,2,10,5,84,2,14,6,2,0,11,2.75,6,L,0.20769047619047618,0.122,0.2309285714285714,0.33549999999999996
11,3,5,0,10,18.299999999999986,16,88,88,94,53,56,20.556999999999984,1.2809999999999993,1.7079999999999989,6.770999999999995,20,4,8,13,98,5,12,31,3,0,14,3.5,6,L,0.20976530612244898,0.2562,0.14233333333333334,0.21841935483870967
11,3,6,0,8,24.70499999999998,17,128,62,113,10,117,27.327999999999978,2.8669999999999978,2.805999999999998,0.122,20,10,10,2,135,15,15,2,2,0,14,3.5,6,L,0.20242962962962963,0.19113333333333332,0.18706666666666663,0.061
11,4,7,0,3,31.475999999999974,19,133,27,86,50,10,32.57399999999998,10.857999999999992,2.3789999999999982,0.8539999999999996,20,16,6,5,139,49,7,6,5,0,18,4.5,6,L,0.23434532374100717,0.22159183673469385,0.3398571428571428,0.14233333333333334
11,4,8,0,1,25.92499999999998,20,118,46,83,66,62,33.854999999999976,0.122,2.622999999999998,4.635999999999997,20,1,11,15,157,1,12,26,3,0,16,4,6,L,0.21563694267515923,0.122,0.21858333333333332,0.1783076923076923
11,5,9,0,8,22.203999999999983,19,102,109,119,115,118,22.569999999999983,1.585999999999999,2.439999999999998,1.463999999999999,20,9,10,6,105,9,13,6,2,1,24,2,6,L,0.21495238095238092,0.17622222222222222,0.18769230769230769,0.244
11,5,10,0,2,33.061999999999976,19,147,54,105,104,107,35.806999999999974,2.9279999999999977,5.428999999999996,2.500999999999998,20,6,15,5,163,9,25,5,4,0.5,16,2.5,6,L,0.21967484662576686,0.3253333333333333,0.21716,0.5001999999999998
12,1,1,0,5,40.01599999999997,20,185,45,12,40,3,40.74799999999997,6.953999999999994,1.2199999999999993,2.8669999999999978,20,12,6,10,191,27,6,14,5,0,22,5.5,5,L,0.21334031413612564,0.25755555555555554,0.20333333333333328,0.2047857142857143
12,1,2,0,3,25.68099999999998,18,115,27,17,72,93,27.571999999999978,13.968999999999989,0.488,10.552999999999992,20,17,4,17,122,56,4,57,5,0,18,4.5,5,L,0.22599999999999998,0.24944642857142854,0.122,0.18514035087719297
12,2,3,0,3,20.007999999999985,20,94,28,30,29,50,25.00999999999998,0.183,3.1109999999999975,10.064999999999992,20,1,10,16,111,1,11,35,5,0.5,34,4.75,5,L,0.2253153153153153,0.183,0.2828181818181818,0.28757142857142853
12,2,4,0,8,26.53499999999998,17,130,111,114,110,116,26.83999999999998,1.3419999999999992,0.305,0.061,20,10,1,1,134,12,1,1,2,1,24,2,5,L,0.20029850746268654,0.11183333333333333,0.305,0.061
12,3,5,0,10,14.273999999999988,16,58,93,15,94,16,24.58299999999998,24.88799999999998,0.183,11.89499999999999,20,18,2,16,101,100,2,42,3,0,18,4.5,5,L,0.24339603960396036,0.24887999999999996,0.0915,0.2832142857142857
12,3,6,0,4,47.09199999999996,19,214,105,100,104,106,49.16599999999996,1.2809999999999993,0.7929999999999997,1.2809999999999993,20,3,3,7,219,4,3,9,2,1,24,2,5,L,0.2245022831050228,0.3202499999999999,0.2643333333333333,0.14233333333333334
12,4,7,0,4,29.157999999999976,20,127,97,101,10,108,32.14699999999998,1.646999999999999,1.463999999999999,0.427,20,7,2,4,137,7,2,4,2,0.5,18,3,5,L,0.23464963503649633,0.23528571428571426,0.7319999999999998,0.10675
12,4,8,0,1,26.35199999999998,16,128,13,27,81,17,45.688999999999965,0.061,0.183,0.244,20,1,2,4,199,1,2,4,3,0,20,5,5,L,0.2295929648241206,0.061,0.0915,0.061
13,1,1,0,4,17.994999999999987,19,90,106,4,105,99,19.336999999999986,9.149999999999993,0.427,1.8299999999999987,20,18,2,4,96,45,2,7,2,0.5,18,3,6,L,0.2014270833333333,0.2033333333333333,0.2135,0.2614285714285714
13,1,2,0,8,20.739999999999984,20,99,116,117,42,21,22.020999999999983,1.7079999999999989,1.3419999999999992,9.515999999999993,20,8,6,15,104,8,7,37,2,0,15,3.75,6,L,0.21174038461538458,0.2135,0.1917142857142857,0.25718918918918915
13,2,3,0,3,25.37599999999998,15,113,26,36,35,29,26.90099999999998,2.9889999999999977,0.305,0.7929999999999997,20,12,2,6,123,16,2,6,5,1,60,5,6,L,0.2187073170731707,0.1868125,0.1525,0.13216666666666665
13,2,4,0,9,12.74899999999999,17,67,68,37,70,2,18.177999999999987,7.9299999999999935,2.3789999999999982,13.663999999999989,20,16,12,16,89,41,16,53,4,0,19,4.75,6,L,0.20424719101123595,0.19341463414634144,0.1486875,0.25781132075471697
13,3,5,0,3,15.859999999999987,20,74,28,35,25,2,20.678999999999984,0.183,0.061,0.9149999999999996,20,2,1,2,86,2,1,2,5,0.5,36,5.25,6,L,0.240453488372093,0.0915,0.061,0.4574999999999998
13,3,6,0,10,26.35199999999998,20,132,90,86,94,114,26.47399999999998,1.8299999999999987,4.635999999999997,7.197999999999994,20,9,10,14,133,9,15,28,3,0.5,20,2.75,6,L,0.19905263157894737,0.20333333333333334,0.3090666666666666,0.25707142857142856
13,4,7,0,6,14.090999999999989,15,67,9,4,3,5,17.567999999999987,3.2939999999999974,0.7929999999999997,1.0369999999999995,20,12,6,6,85,17,6,6,6,1,72,6,6,L,0.20668235294117646,0.19376470588235292,0.13216666666666665,0.17283333333333334
13,4,8,0,1,24.52199999999998,19,127,77,75,83,80,27.02299999999998,0.061,2.3789999999999982,0.061,20,1,6,1,133,1,8,1,3,1,36,3,6,L,0.20318045112781952,0.061,0.29737499999999994,0.061
13,5,9,0,7,10.125999999999992,14,47,17,22,13,15,11.040999999999991,1.463999999999999,5.367999999999996,0.061,17,7,12,1,50,8,20,1,6,1,72,6,6,L,0.22082,0.183,0.26839999999999997,0.061
13,5,10,0,1,17.872999999999987,17,96,74,78,1,12,18.421999999999986,3.476999999999997,4.452999999999997,1.2809999999999993,19,13,15,5,98,18,21,5,3,0,18,4.5,6,L,0.18797959183673468,0.19316666666666665,0.21204761904761904,0.2562
14,1,1,0,2,26.41299999999998,18,130,57,59,58,13,34.159999999999975,0.488,1.463999999999999,2.3789999999999982,20,4,9,8,166,4,9,10,4,0.5,30,4.5,6,L,0.20578313253012046,0.122,0.16266666666666665,0.2379
14,1,2,0,10,21.105999999999984,17,84,90,95,65,89,24.52199999999998,0.9759999999999995,5.001999999999996,0.061,20,4,13,1,105,5,26,1,3,0.5,22,3.25,6,L,0.2335428571428571,0.19519999999999998,0.19238461538461538,0.061
14,2,3,0,3,28.364999999999977,16,131,35,33,29,82,29.401999999999976,0.7319999999999998,0.183,10.186999999999992,18,4,2,15,133,4,2,49,5,0.5,33,4.5,6,L,0.2210676691729323,0.183,0.0915,0.20789795918367346
14,2,4,0,7,11.71199999999999,12,57,13,18,19,17,12.26099999999999,2.1349999999999985,0.427,5.550999999999996,17,12,5,16,63,15,5,31,6,1,72,6,6,L,0.1946190476190476,0.14233333333333334,0.0854,0.17906451612903226
14,3,5,0,1,38.49099999999997,19,164,75,80,83,8,39.28399999999997,0.8539999999999996,1.3419999999999992,5.916999999999995,20,3,3,13,168,3,3,25,3,0.5,24,3.75,6,L,0.2338333333333333,0.2846666666666667,0.44733333333333325,0.23668
14,3,6,0,7,19.885999999999985,19,99,52,17,20,24,28.91399999999998,0.244,0.5489999999999999,2.500999999999998,20,2,3,10,134,2,3,12,6,0.5,40,5.5,6,L,0.21577611940298505,0.122,0.183,0.20841666666666664
14,4,7,0,10,25.07099999999998,19,116,89,92,94,27,26.04699999999998,0.488,0.7319999999999998,6.8929999999999945,20,4,4,14,122,4,6,30,3,0.5,23,3.5,6,L,0.2135,0.122,0.122,0.22976666666666665
14,4,8,0,4,12.93199999999999,18,68,13,46,104,61,68.31999999999995,0.366,0.061,0.6099999999999999,20,2,1,2,324,2,1,2,2,0,17,4.25,6,L,0.2108641975308642,0.183,0.061,0.30499999999999994
14,5,9,0,5,24.15599999999998,14,105,41,42,46,9,24.33899999999998,4.940999999999996,2.500999999999998,9.576999999999993,16,11,8,14,107,22,12,30,5,0.5,36,5.25,6,L,0.22746728971962615,0.2245909090909091,0.20841666666666667,0.31923333333333326
14,5,10,0,7,17.445999999999987,18,99,17,13,22,19,17.933999999999987,13.29799999999999,2.500999999999998,1.463999999999999,20,16,9,7,104,59,10,7,6,1,72,6,6,L,0.1724423076923077,0.22538983050847455,0.2501,0.2091428571428571
15,1,1,0,7,21.288999999999984,19,97,20,74,17,18,24.15599999999998,3.0499999999999976,1.9519999999999986,2.439999999999998,20,9,5,9,108,10,5,14,6,0.5,39,5.25,6,L,0.22366666666666665,0.3049999999999999,0.3903999999999999,0.1742857142857143
15,1,2,0,3,31.597999999999974,20,155,33,28,30,32,36.90499999999997,1.463999999999999,0.9149999999999996,0.488,20,7,5,1,177,9,5,1,5,1,60,5,6,L,0.20850282485875704,0.16266666666666665,0.183,0.488
15,2,3,0,6,15.432999999999987,13,68,1,9,95,6,15.859999999999987,8.539999999999994,2.439999999999998,0.488,16,18,7,2,71,34,9,2,6,0.5,39,5.25,6,L,0.22338028169014082,0.2511764705882353,0.2711111111111111,0.244
15,2,4,0,4,18.604999999999986,19,98,98,107,106,104,19.214999999999986,2.1959999999999984,0.366,1.7689999999999988,20,9,2,7,103,11,2,9,2,1,24,2,6,L,0.1865533980582524,0.1996363636363636,0.183,0.19655555555555554
15,3,5,0,6,21.044999999999984,19,105,3,6,8,11,21.105999999999984,7.8689999999999936,0.366,2.561999999999998,20,17,2,6,106,30,2,7,6,1,72,6,6,L,0.1991132075471698,0.2623,0.183,0.366
15,3,6,0,5,24.52199999999998,13,121,46,44,43,38,25.49799999999998,1.524999999999999,0.488,2.622999999999998,16,6,3,8,124,6,3,10,5,1,60,5,6,L,0.2056290322580645,0.25416666666666665,0.16266666666666665,0.2623
15,4,7,0,10,23.42399999999998,19,108,92,110,93,109,32.14699999999998,1.524999999999999,3.1109999999999975,12.56599999999999,20,6,7,16,141,6,10,61,3,0,10,2.5,6,L,0.22799290780141843,0.25416666666666665,0.31109999999999993,0.206
15,4,8,0,6,24.46099999999998,14,118,7,8,12,35,24.52199999999998,3.2329999999999974,5.7949999999999955,10.003999999999992,15,6,17,17,119,7,26,41,6,0.5,41,5.75,6,L,0.20606722689075627,0.4618571428571427,0.22288461538461538,0.24399999999999997
15,5,9,0,10,12.38299999999999,19,65,95,96,5,49,15.676999999999987,1.3419999999999992,19.031999999999986,7.9299999999999935,20,3,17,15,76,3,81,30,3,0,16,4,6,L,0.20627631578947367,0.4473333333333333,0.23496296296296293,0.2643333333333333
15,5,10,0,8,26.71799999999998,20,114,22,118,109,120,37.94199999999997,0.366,0.061,0.9759999999999995,20,3,1,1,159,3,1,1,2,0.5,18,3,6,L,0.23862893081761002,0.122,0.061,0.9759999999999995
16,1,1,0,8,25.98599999999998,20,117,117,120,43,53,26.10799999999998,1.646999999999999,4.147999999999997,2.9889999999999977,20,5,12,11,118,6,18,14,2,0,13,3.25,6,L,0.22125423728813556,0.27449999999999997,0.23044444444444445,0.21349999999999997
16,1,2,0,7,54.411999999999956,16,253,20,14,62,67,56.668999999999954,4.086999999999997,0.305,6.221999999999995,20,13,1,10,265,25,1,20,6,0,20,5,6,L,0.2138452830188679,0.16348,0.305,0.31109999999999993
16,2,3,0,3,32.20799999999998,20,170,26,34,32,87,33.549999999999976,0.5489999999999999,2.1959999999999984,1.524999999999999,20,2,5,6,175,3,7,6,5,0.5,33,4.5,6,L,0.1917142857142857,0.183,0.31371428571428567,0.25416666666666665
16,2,4,0,1,23.362999999999982,20,92,84,75,61,1,23.42399999999998,3.0499999999999976,0.366,5.306999999999996,20,10,2,13,93,13,2,27,3,0,16,4,6,L,0.25187096774193546,0.2346153846153846,0.183,0.19655555555555554
16,3,5,0,4,42.08999999999997,18,199,100,107,97,84,42.88299999999997,0.427,0.305,6.526999999999995,20,4,1,15,202,4,1,30,2,0.5,15,2.25,6,L,0.21229207920792076,0.10675,0.305,0.21756666666666666
16,3,6,0,8,14.456999999999988,19,66,112,113,22,20,15.188999999999988,0.6709999999999998,3.0499999999999976,2.744999999999998,20,3,9,9,71,3,13,12,2,0,16,4,6,L,0.21392957746478872,0.22366666666666665,0.2346153846153846,0.22874999999999998
16,4,7,0,8,40.68699999999997,20,182,109,118,114,52,40.80899999999997,1.3419999999999992,2.805999999999998,3.842999999999997,20,7,8,11,183,8,13,12,2,0.5,16,2.5,6,L,0.22299999999999998,0.16775,0.21584615384615385,0.3202499999999999
16,4,8,0,1,25.74199999999998,19,106,73,22,20,13,26.16899999999998,10.064999999999992,1.2199999999999993,6.648999999999995,20,18,6,16,108,56,7,30,3,0.5,39,5.25,6,L,0.24230555555555552,0.17973214285714284,0.1742857142857143,0.22163333333333332
16,5,9,0,3,20.495999999999984,15,107,32,80,81,62,28.79199999999998,0.366,6.526999999999995,0.061,20,2,14,1,147,2,28,1,5,0,15,3.75,6,L,0.19586394557823128,0.183,0.23310714285714282,0.061
16,5,10,0,2,43.980999999999966,15,175,50,49,45,40,44.285999999999966,0.061,5.550999999999996,6.343999999999995,16,1,15,13,176,1,30,25,4,0,18,4.5,6,L,0.251625,0.061,0.18503333333333333,0.25376
17,1,1,0,10,20.495999999999984,16,96,88,92,95,57,22.264999999999983,2.0129999999999986,0.061,4.391999999999997,20,5,1,8,106,6,1,10,3,0.5,22,3.25,6,L,0.21004716981132074,0.3354999999999999,0.061,0.43919999999999987
17,1,2,0,8,19.092999999999986,14,90,119,109,120,117,19.885999999999985,0.061,1.0369999999999995,0.6099999999999999,16,1,3,3,92,1,3,3,2,1,24,2,6,L,0.21615217391304345,0.061,0.34566666666666657,0.20333333333333334
17,2,3,0,5,29.035999999999976,20,131,41,37,17,59,29.767999999999976,3.1109999999999975,2.9279999999999977,2.3789999999999982,20,9,10,5,134,11,13,6,5,0,20,5,6,L,0.22214925373134325,0.28281818181818175,0.22523076923076923,0.3964999999999999
17,2,4,0,10,13.663999999999989,20,66,2,65,90,66,40.19899999999997,5.001999999999996,4.940999999999996,2.2569999999999983,20,15,13,9,177,22,17,10,3,0,17,4.25,6,L,0.22711299435028245,0.22736363636363635,0.29064705882352937,0.22569999999999998
17,3,5,0,5,20.739999999999984,19,101,23,79,21,44,29.52399999999998,10.308999999999992,1.463999999999999,3.4159999999999973,20,17,5,10,146,40,5,13,5,0,20,5,6,L,0.20221917808219175,0.257725,0.29279999999999995,0.26276923076923075
17,3,6,0,6,15.920999999999987,16,90,6,10,4,12,18.604999999999986,0.366,19.336999999999986,1.9519999999999986,20,2,17,6,101,2,82,6,6,1,72,6,6,L,0.1842079207920792,0.183,0.2358170731707317,0.3253333333333333
17,4,7,0,8,20.556999999999984,19,99,113,111,116,27,21.166999999999984,2.805999999999998,2.561999999999998,10.857999999999992,20,8,10,17,103,10,11,45,2,0.5,17,2.75,6,L,0.20550485436893204,0.28059999999999996,0.2329090909090909,0.24128888888888886
17,4,8,0,10,17.445999999999987,19,92,96,88,44,42,18.543999999999986,2.3789999999999982,14.273999999999988,1.2809999999999993,20,9,18,7,98,12,65,8,3,0,16,4,6,L,0.18922448979591835,0.19824999999999998,0.2196,0.160125
17,5,9,0,9,14.700999999999988,19,77,80,1,74,62,40.80899999999997,4.025999999999997,0.6709999999999998,4.025999999999997,20,12,5,12,181,16,5,17,4,0,16,4,6,L,0.22546408839779003,0.25162499999999993,0.13419999999999999,0.23682352941176465
17,5,10,0,5,25.13199999999998,20,122,47,44,40,21,27.266999999999978,0.7319999999999998,0.061,5.7339999999999955,20,3,1,13,131,3,1,29,5,0.5,36,5.25,6,L,0.20814503816793892,0.244,0.061,0.19772413793103447
18,1,1,0,8,25.68099999999998,18,135,110,43,117,3,27.449999999999978,0.244,2.1959999999999984,4.6969999999999965,20,2,6,13,140,2,8,20,2,0,15,3.75,5,L,0.19607142857142856,0.122,0.27449999999999997,0.23484999999999998
18,1,2,0,1,23.91199999999998,19,113,73,84,77,75,24.64399999999998,1.585999999999999,0.6099999999999999,2.805999999999998,20,6,4,6,115,7,5,8,3,1,36,3,5,L,0.21429565217391303,0.22657142857142856,0.122,0.35074999999999995
18,2,3,0,10,59.59699999999995,15,274,1,43,96,90,63.92799999999995,1.1589999999999994,0.6099999999999999,0.8539999999999996,20,3,3,4,292,3,3,4,3,0,17,4.25,5,L,0.21893150684931503,0.3863333333333333,0.20333333333333334,0.2135
18,2,4,0,7,14.090999999999989,20,56,22,18,24,23,16.04299999999999,0.427,6.343999999999995,0.305,20,4,13,2,64,4,25,2,6,1,72,6,5,L,0.250671875,0.10675,0.25375999999999993,0.1525
18,3,5,0,7,5.611999999999996,16,25,13,24,16,22,9.393999999999993,1.1589999999999994,2.1349999999999985,2.439999999999998,20,5,6,9,39,5,9,13,6,1,72,6,5,L,0.24087179487179486,0.23179999999999998,0.2372222222222222,0.18769230769230769
18,3,6,0,1,35.135999999999974,14,150,82,10,79,78,44.407999999999966,4.147999999999997,0.061,0.366,20,14,1,4,186,17,1,4,3,0.5,24,3.75,5,L,0.23875268817204298,0.24399999999999997,0.061,0.0915
18,4,7,0,1,119.37700000000635,20,522,76,77,79,59,119.49900000000635,0.183,1.585999999999999,0.7319999999999998,20,2,7,2,524,2,8,2,3,0.5,22,3.25,5,L,0.22805152671755724,0.0915,0.19824999999999998,0.366
18,4,8,0,7,14.822999999999988,18,67,22,18,85,70,15.676999999999987,0.244,11.223999999999991,4.330999999999997,20,2,14,11,72,2,39,19,6,0,19,4.75,5,L,0.2177361111111111,0.122,0.28779487179487173,0.22794736842105262
19,1,1,0,10,37.63699999999997,19,153,88,95,94,51,39.64999999999997,2.744999999999998,2.8669999999999978,0.427,20,9,6,3,164,10,8,4,3,0.5,22,3.25,6,L,0.24176829268292682,0.27449999999999997,0.35837499999999994,0.10675
19,1,2,0,9,23.179999999999982,19,98,62,61,73,6,24.03399999999998,1.2809999999999993,10.064999999999992,4.147999999999997,20,8,16,15,102,10,45,19,4,0,17,4.25,6,L,0.23562745098039214,0.1281,0.22366666666666662,0.2183157894736842
19,2,3,0,6,20.434999999999985,20,108,8,4,5,10,20.495999999999984,2.805999999999998,13.724999999999989,0.122,20,10,18,1,109,14,52,1,6,1,72,6,6,L,0.1880366972477064,0.20042857142857143,0.26394230769230764,0.122
19,2,4,0,7,24.33899999999998,20,118,15,23,21,45,25.00999999999998,0.183,2.0739999999999985,14.395999999999988,20,1,9,16,122,1,12,69,6,0.5,41,5.75,6,L,0.205,0.183,0.17283333333333334,0.20863768115942027
19,3,5,0,3,27.14499999999998,17,128,27,31,70,34,30.194999999999975,5.245999999999996,2.0739999999999985,0.9759999999999995,20,13,5,5,144,20,6,7,5,0.5,34,4.75,6,L,0.20968749999999997,0.2623,0.34566666666666657,0.13942857142857143
19,3,6,0,10,20.922999999999984,17,99,92,85,90,88,22.386999999999983,0.244,0.122,4.391999999999997,20,1,1,11,107,1,1,20,3,1,36,3,6,L,0.20922429906542053,0.244,0.122,0.2196
19,4,7,0,5,20.129999999999985,19,103,38,43,47,40,22.081999999999983,0.244,0.366,4.330999999999997,20,2,1,9,112,2,1,14,5,1,60,5,6,L,0.19716071428571427,0.122,0.366,0.30935714285714283
19,4,8,0,4,24.15599999999998,20,111,97,108,102,100,24.76599999999998,2.0739999999999985,1.4029999999999991,0.061,20,6,5,1,115,8,5,1,2,1,24,2,6,L,0.21535652173913042,0.25925,0.2806,0.061
19,5,9,0,3,17.689999999999987,19,99,30,33,32,31,18.604999999999986,0.9759999999999995,3.476999999999997,4.330999999999997,20,5,10,13,104,6,14,23,5,1,60,5,6,L,0.17889423076923075,0.16266666666666665,0.24835714285714283,0.18830434782608696
19,5,10,0,5,29.157999999999976,16,131,37,39,41,4,29.584999999999976,0.366,4.879999999999996,10.552999999999992,19,2,14,16,134,2,24,44,5,0.5,36,5.25,6,L,0.22078358208955223,0.183,0.2033333333333333,0.23984090909090905
20,1,1,0,1,31.231999999999974,19,131,75,77,78,32,32.45199999999998,0.6709999999999998,0.6099999999999999,2.3179999999999983,20,4,6,6,139,4,6,10,3,0.5,23,3.5,6,L,0.23346762589928055,0.16775,0.10166666666666667,0.23179999999999995
20,1,2,0,10,19.946999999999985,18,97,93,91,95,15,20.800999999999984,6.221999999999995,5.184999999999996,4.086999999999997,20,16,12,9,100,30,19,12,3,0.5,24,3.75,6,L,0.20800999999999997,0.20739999999999997,0.2728947368421052,0.3405833333333333
20,2,3,0,3,23.240999999999982,17,97,30,34,31,25,25.98599999999998,1.646999999999999,5.550999999999996,0.427,20,5,13,3,105,5,23,3,5,1,60,5,6,L,0.24748571428571428,0.3293999999999999,0.2413478260869565,0.14233333333333334
20,2,4,0,9,29.828999999999976,19,134,71,95,96,3,35.867999999999974,4.635999999999997,5.672999999999996,7.502999999999994,20,12,12,17,163,16,18,33,4,0,16,4,6,L,0.2200490797546012,0.28974999999999995,0.3151666666666666,0.22736363636363632
20,3,5,0,7,24.03399999999998,20,105,17,21,25,33,24.27799999999998,2.0739999999999985,6.282999999999995,4.879999999999996,20,6,15,15,108,6,33,28,6,0,22,5.5,6,L,0.22479629629629627,0.3456666666666666,0.1903939393939394,0.17428571428571427
20,3,6,0,5,48.12899999999996,20,209,45,41,10,63,48.86099999999996,0.061,3.720999999999997,4.635999999999997,20,1,9,12,212,1,12,20,5,0,20,5,6,L,0.2304764150943396,0.061,0.31008333333333327,0.23179999999999998
20,4,7,0,3,48.12899999999996,14,201,27,25,10,26,48.73899999999996,5.306999999999996,0.7929999999999997,3.842999999999997,19,12,2,14,206,17,2,24,5,0.5,36,5.25,6,L,0.23659708737864074,0.3121764705882352,0.39649999999999996,0.160125
20,4,8,0,5,15.127999999999988,20,73,41,48,42,62,15.493999999999987,0.427,0.6709999999999998,7.563999999999994,20,5,2,14,76,5,2,27,5,0.5,34,4.75,6,L,0.20386842105263156,0.0854,0.3354999999999999,0.2801481481481481
20,5,9,0,9,32.02499999999998,16,137,63,66,67,69,33.183999999999976,3.598999999999997,4.452999999999997,4.940999999999996,20,9,15,11,143,13,24,16,4,1,48,4,6,L,0.23205594405594404,0.2768461538461538,0.18554166666666666,0.30881249999999993
20,5,10,0,3,52.52099999999996,14,226,17,25,30,33,53.25299999999996,7.258999999999994,1.2199999999999993,1.524999999999999,15,15,5,7,227,26,6,12,5,0.5,36,5.25,6,L,0.23459471365638765,0.27919230769230763,0.2033333333333333,0.12708333333333333
21,1,1,0,3,21.837999999999983,20,103,5,89,11,8,80.33699999999993,0.183,0.061,0.061,20,1,1,1,347,1,1,1,5,0.5,39,5.25,6,L,0.23151873198847261,0.183,0.061,0.061
21,1,2,0,1,17.506999999999987,18,84,14,81,42,73,35.501999999999974,0.488,0.244,0.305,20,4,2,2,143,4,2,2,3,0,17,4.25,6,L,0.24826573426573423,0.122,0.122,0.1525
21,2,3,0,1,17.018999999999988,18,94,83,2,29,9,18.665999999999986,8.356999999999994,6.038999999999995,3.659999999999997,20,16,17,11,100,29,32,16,3,0,20,5,6,L,0.18666,0.2881724137931034,0.18871875,0.22874999999999998
21,2,4,0,5,30.560999999999975,20,134,39,46,60,44,31.414999999999974,1.463999999999999,0.7929999999999997,3.9649999999999967,20,5,2,13,138,5,2,23,5,0.5,34,4.75,6,L,0.22764492753623186,0.29279999999999995,0.39649999999999996,0.1723913043478261
21,3,5,0,8,31.231999999999974,20,137,118,110,38,47,31.414999999999974,3.9649999999999967,7.014999999999994,0.488,20,12,16,2,139,20,26,2,2,0,14,3.5,6,L,0.2260071942446043,0.19824999999999998,0.26980769230769225,0.244
21,3,6,0,7,20.922999999999984,19,97,20,13,14,24,24.94899999999998,2.1959999999999984,1.0979999999999994,1.8299999999999987,20,7,6,8,115,7,6,9,6,1,72,6,6,L,0.2169478260869565,0.3137142857142856,0.183,0.20333333333333334
21,4,7,0,7,8.478999999999994,19,43,22,13,17,24,10.003999999999992,2.744999999999998,2.3179999999999983,0.6709999999999998,20,9,8,3,49,12,9,3,6,1,72,6,6,L,0.20416326530612244,0.22874999999999998,0.25755555555555554,0.22366666666666665
21,4,8,0,9,38.91799999999997,18,173,64,68,65,66,40.62599999999997,0.7929999999999997,0.7319999999999998,10.125999999999992,20,4,5,15,180,4,5,39,4,1,48,4,6,L,0.22569999999999998,0.19824999999999998,0.1464,0.2596410256410256
21,5,9,0,2,10.430999999999992,14,57,59,53,81,57,15.798999999999989,2.805999999999998,1.2809999999999993,2.8669999999999978,20,10,2,7,79,15,2,10,4,0.5,27,3.75,6,L,0.19998734177215188,0.18706666666666666,0.6404999999999997,0.28669999999999995
21,5,10,0,9,34.159999999999975,18,130,66,65,64,30,34.647999999999975,3.1719999999999975,0.061,3.781999999999997,20,5,1,9,133,9,1,11,4,0.5,29,4.25,6,L,0.2605112781954887,0.35244444444444445,0.061,0.3438181818181817
22,1,1,0,4,19.824999999999985,20,91,19,43,16,88,38.73499999999997,0.061,2.0739999999999985,11.589999999999991,20,1,5,17,168,1,7,50,2,0,20,5,6,L,0.23056547619047615,0.061,0.29628571428571426,0.23179999999999998
22,1,2,0,3,16.591999999999988,18,77,28,31,3,51,16.652999999999988,4.452999999999997,2.744999999999998,5.428999999999996,19,9,7,14,78,17,10,20,5,0,20,5,6,L,0.2135,0.26194117647058823,0.27449999999999997,0.27144999999999997
22,2,3,0,1,25.37599999999998,18,116,83,73,74,70,26.10799999999998,3.537999999999997,0.8539999999999996,0.244,20,11,3,2,123,17,3,2,3,0.5,22,3.25,6,L,0.212260162601626,0.2081176470588235,0.2846666666666666,0.122
22,2,4,0,4,33.061999999999976,19,149,105,108,98,13,34.342999999999975,2.561999999999998,2.2569999999999983,4.025999999999997,20,11,8,13,154,17,14,18,2,0.5,18,3,6,L,0.22300649350649349,0.15070588235294116,0.1612142857142857,0.22366666666666665
22,3,5,0,4,30.255999999999975,19,150,108,105,107,37,31.414999999999974,6.038999999999995,2.3179999999999983,1.463999999999999,20,13,8,4,157,21,10,7,2,0.5,17,2.75,6,L,0.2000955414012739,0.28757142857142853,0.23179999999999998,0.20914285714285713
22,3,6,0,8,20.922999999999984,20,105,111,116,114,112,21.105999999999984,0.6709999999999998,1.7689999999999988,4.147999999999997,20,4,5,10,106,4,5,16,2,1,24,2,6,L,0.1991132075471698,0.16775,0.3537999999999999,0.25925
22,4,7,0,8,35.684999999999974,17,162,120,114,32,6,37.75899999999997,0.061,7.258999999999994,2.0129999999999986,20,1,15,6,170,1,37,6,2,0,15,3.75,6,L,0.22211176470588234,0.061,0.19618918918918918,0.33549999999999996
22,4,8,0,10,29.584999999999976,20,155,106,14,50,48,54.533999999999956,8.173999999999994,0.061,0.6709999999999998,20,19,1,2,265,40,1,2,3,0,17,4.25,6,L,0.20578867924528302,0.20434999999999998,0.061,0.33549999999999996
22,5,9,0,9,39.89399999999997,14,161,5,10,74,99,61.12199999999996,0.305,0.5489999999999999,0.6709999999999998,20,1,6,2,254,1,6,2,4,0,17,4.25,6,L,0.24063779527559054,0.305,0.0915,0.3354999999999999
22,5,10,0,8,17.201999999999988,20,92,116,113,118,39,18.848999999999986,5.855999999999995,6.770999999999995,1.8299999999999987,20,13,15,9,98,23,36,13,2,0.5,17,2.75,6,L,0.19233673469387755,0.25460869565217387,0.18808333333333332,0.14076923076923076
23,1,1,0,10,18.177999999999987,18,84,90,86,54,95,22.508999999999983,0.366,8.234999999999994,2.3789999999999982,20,3,16,8,104,3,39,15,3,0.5,22,3.25,6,L,0.2164326923076923,0.122,0.21115384615384614,0.1586
23,1,2,0,8,17.262999999999987,18,88,119,110,120,70,17.323999999999987,2.3789999999999982,5.367999999999996,0.6709999999999998,19,9,15,1,89,10,21,1,2,0.5,16,2.5,6,L,0.19465168539325842,0.2379,0.2556190476190476,0.6709999999999998
23,2,3,0,10,20.312999999999985,20,95,85,64,91,4,21.471999999999984,7.563999999999994,1.646999999999999,1.0979999999999994,20,14,9,7,98,28,10,9,3,0,16,4,6,L,0.2191020408163265,0.2701428571428571,0.16469999999999999,0.122
23,2,4,0,7,21.959999999999983,20,112,58,21,76,17,27.205999999999978,1.524999999999999,1.585999999999999,4.025999999999997,20,6,5,13,132,7,8,17,6,0,19,4.75,6,L,0.2061060606060606,0.21785714285714286,0.19824999999999998,0.2368235294117647
23,3,5,0,8,16.896999999999988,19,79,113,114,58,112,17.445999999999987,1.2809999999999993,0.366,0.5489999999999999,20,3,2,3,82,3,2,3,2,0.5,16,2.5,6,L,0.2127560975609756,0.4269999999999998,0.183,0.183
23,3,6,0,6,15.127999999999988,19,83,5,12,8,6,16.774999999999988,1.7689999999999988,0.061,5.7339999999999955,20,4,1,15,92,5,1,26,6,1,72,6,6,L,0.18233695652173912,0.35379999999999984,0.061,0.22053846153846152
23,4,7,0,4,38.24699999999997,14,161,102,106,98,8,38.55199999999997,0.183,0.244,9.515999999999993,16,2,2,14,163,2,2,36,2,0.5,18,3,6,L,0.23651533742331285,0.0915,0.122,0.2643333333333333
23,4,8,0,9,24.39999999999998,20,106,61,13,72,14,24.82699999999998,7.563999999999994,6.465999999999995,2.683999999999998,20,14,14,8,110,32,21,10,4,0,20,5,6,L,0.22569999999999998,0.23637499999999997,0.30790476190476185,0.26839999999999997
23,5,9,0,4,23.057999999999982,18,97,14,106,101,78,33.061999999999976,0.061,2.500999999999998,2.439999999999998,20,1,8,8,131,1,9,11,2,0,13,3.25,6,L,0.25238167938931294,0.061,0.27788888888888885,0.2218181818181818
23,5,10,0,3,9.698999999999993,17,51,33,91,3,32,13.35899999999999,13.35899999999999,7.8689999999999936,2.1349999999999985,20,19,16,7,68,62,34,8,5,0,19,4.75,6,L,0.19645588235294117,0.21546774193548385,0.2314411764705882,0.266875
24,1,1,0,4,15.432999999999987,19,75,100,108,106,101,15.859999999999987,0.5489999999999999,0.6709999999999998,0.305,20,3,4,3,77,3,4,3,2,1,24,2,6,L,0.20597402597402598,0.183,0.16775,0.10166666666666667
24,1,2,0,8,26.22999999999998,20,127,109,110,115,116,26.71799999999998,3.1109999999999975,1.463999999999999,1.7689999999999988,20,12,8,6,131,15,9,6,2,1,24,2,6,L,0.20395419847328242,0.2074,0.16266666666666665,0.2948333333333333
24,2,3,0,3,19.092999999999986,20,81,29,13,57,14,20.312999999999985,9.576999999999993,9.027999999999993,8.539999999999994,20,17,18,16,87,47,37,33,5,0,21,5.25,6,L,0.23348275862068962,0.2037659574468085,0.24399999999999997,0.25878787878787873
24,2,4,0,5,61.48799999999995,15,261,43,47,44,86,63.92799999999995,3.659999999999997,1.585999999999999,5.550999999999996,20,12,4,15,274,16,6,28,5,0.5,33,4.5,6,L,0.23331386861313866,0.22874999999999995,0.2643333333333333,0.19824999999999998
24,3,5,0,3,16.530999999999988,19,82,1,60,4,89,39.64999999999997,2.2569999999999983,3.2329999999999974,3.476999999999997,20,8,14,12,173,9,17,15,5,0,19,4.75,6,L,0.2291907514450867,0.25077777777777777,0.19017647058823528,0.23179999999999998
24,3,6,0,5,27.693999999999978,20,124,44,43,40,47,29.157999999999976,4.269999999999997,0.488,2.0739999999999985,20,10,2,7,131,16,3,10,5,1,60,5,6,L,0.2225801526717557,0.266875,0.16266666666666665,0.2074
24,4,7,0,6,12.80999999999999,20,58,4,10,85,53,13.17599999999999,17.018999999999988,0.244,0.122,20,18,1,2,60,78,1,2,6,0,19,4.75,6,L,0.2196,0.21819230769230769,0.244,0.061
24,4,8,0,1,27.571999999999978,17,131,82,73,39,65,31.719999999999974,0.122,3.781999999999997,2.561999999999998,20,1,7,8,150,1,9,9,3,0,15,3.75,6,L,0.21146666666666664,0.122,0.42022222222222205,0.2846666666666666
24,5,9,0,4,14.151999999999989,16,77,104,98,20,97,17.811999999999987,0.427,49.89799999999996,0.061,20,3,18,1,89,3,180,1,2,0.5,18,3,6,L,0.20013483146067415,0.14233333333333334,0.2772111111111111,0.061
24,5,10,0,8,23.42399999999998,20,106,112,117,76,109,25.80299999999998,1.7689999999999988,4.940999999999996,0.488,20,6,12,5,117,6,24,5,2,0.5,15,2.25,6,L,0.22053846153846152,0.2948333333333333,0.20587499999999997,0.09759999999999999
25,1,1,0,4,33.061999999999976,16,154,97,102,25,14,33.610999999999976,2.622999999999998,3.4159999999999973,4.452999999999997,19,12,9,13,157,16,12,20,2,0,15,3.75,6,L,0.21408280254777068,0.16393749999999999,0.2846666666666666,0.22265
25,1,2,0,8,35.562999999999974,20,159,115,111,110,81,35.989999999999974,4.513999999999997,0.9149999999999996,3.537999999999997,20,11,5,9,162,20,5,15,2,0.5,15,2.25,6,L,0.22216049382716047,0.22569999999999998,0.183,0.23586666666666664
25,2,3,0,1,20.129999999999985,18,85,84,77,73,76,21.410999999999984,0.061,3.537999999999997,5.672999999999996,20,1,5,14,90,1,6,24,3,1,36,3,6,L,0.23789999999999997,0.061,0.5896666666666665,0.23637499999999997
25,2,4,0,4,17.811999999999987,20,90,97,5,52,36,26.229999999999983,2.3789999999999982,1.0979999999999994,1.524999999999999,20,6,5,8,125,7,7,8,2,0,17,4.25,6,L,0.20984,0.3398571428571428,0.15685714285714286,0.190625
25,3,5,0,2,18.604999999999986,20,97,92,88,13,18,71.18699999999994,0.6099999999999999,3.0499999999999976,0.244,20,3,10,2,312,4,12,2,4,0,18,4.5,6,L,0.2281634615384615,0.1525,0.25416666666666665,0.122
25,3,6,0,9,19.946999999999985,20,97,65,71,11,46,20.800999999999984,1.8909999999999987,1.463999999999999,4.574999999999997,20,8,7,12,102,10,9,17,4,0,19,4.75,6,L,0.2039313725490196,0.1891,0.16266666666666665,0.2691176470588235
25,4,7,0,1,25.25399999999998,18,111,79,75,80,21,26.83999999999998,0.9149999999999996,0.6099999999999999,6.526999999999995,20,2,3,15,117,2,3,32,3,0.5,24,3.75,6,L,0.22940170940170937,0.45749999999999996,0.20333333333333334,0.20396874999999998
25,4,8,0,10,25.00999999999998,20,123,92,96,60,91,27.08399999999998,0.061,12.56599999999999,0.305,20,1,16,2,132,1,48,2,3,0.5,22,3.25,6,L,0.20518181818181816,0.061,0.26179166666666664,0.1525
25,5,9,0,2,13.41999999999999,15,54,57,49,53,58,13.968999999999989,2.3179999999999983,1.1589999999999994,2.1349999999999985,17,6,4,7,57,8,4,9,4,1,48,4,6,L,0.24507017543859647,0.28974999999999995,0.28974999999999995,0.2372222222222222
25,5,10,0,5,22.142999999999983,20,122,39,40,45,11,22.447999999999983,3.1719999999999975,10.430999999999992,1.646999999999999,20,12,16,8,124,15,51,8,5,0.5,36,5.25,6,L,0.18103225806451612,0.21146666666666664,0.20452941176470585,0.20587499999999997
26,1,1,0,1,30.987999999999975,19,135,80,78,77,66,31.536999999999974,0.5489999999999999,0.5489999999999999,5.123999999999996,20,6,3,13,137,6,3,21,3,0.5,22,3.25,6,L,0.23019708029197078,0.0915,0.183,0.244
26,1,2,0,8,19.458999999999985,19,93,109,119,113,55,20.922999999999984,3.1109999999999975,0.183,2.1959999999999984,20,7,2,7,101,9,2,8,2,0.5,16,2.5,6,L,0.20715841584158415,0.3456666666666666,0.0915,0.27449999999999997
26,2,3,0,10,15.493999999999987,18,79,91,3,1,93,20.373999999999985,5.855999999999995,18.116999999999987,0.244,20,13,18,2,97,21,67,2,3,0,18,4.5,6,L,0.21004123711340203,0.2788571428571428,0.27040298507462684,0.122
26,2,4,0,3,16.10399999999999,18,87,31,33,35,49,23.48499999999998,0.122,0.488,11.528999999999991,20,1,2,17,125,1,2,48,5,0.5,34,4.75,6,L,0.18788,0.122,0.244,0.24018749999999997
26,3,5,0,10,30.560999999999975,19,134,90,95,94,87,31.414999999999974,0.244,0.305,1.585999999999999,20,2,3,6,137,2,3,8,3,1,36,3,6,L,0.22930656934306567,0.122,0.10166666666666667,0.19824999999999998
26,3,6,0,2,19.702999999999985,19,94,2,53,9,12,38.79599999999997,0.488,1.0369999999999995,2.561999999999998,20,4,6,7,176,4,6,9,4,0.5,40,5.5,6,L,0.22043181818181817,0.122,0.17283333333333334,0.2846666666666667
26,4,7,0,10,14.273999999999988,13,69,5,8,93,70,36.05099999999997,56.119999999999955,0.122,0.122,20,19,2,2,152,221,2,2,3,0,19,4.75,6,L,0.23717763157894733,0.25393665158371037,0.061,0.061
26,4,8,0,5,24.88799999999998,17,129,42,44,40,51,25.92499999999998,0.183,1.4029999999999991,13.17599999999999,20,1,3,15,132,1,3,48,5,0.5,34,4.75,6,L,0.19640151515151513,0.183,0.4676666666666665,0.27449999999999997
26,5,9,0,8,15.859999999999987,20,83,1,85,116,95,56.790999999999954,0.305,0.8539999999999996,0.183,20,2,3,2,237,2,3,2,2,0,14,3.5,6,L,0.23962447257383965,0.1525,0.2846666666666667,0.0915
26,5,10,0,7,22.630999999999982,18,100,18,67,15,20,26.65699999999998,10.735999999999992,1.2809999999999993,1.3419999999999992,20,17,4,5,117,51,5,6,6,0.5,40,5.5,6,L,0.22783760683760682,0.21050980392156862,0.2562,0.22366666666666665
27,1,1,0,6,25.37599999999998,20,131,5,7,33,3,28.303999999999977,0.183,11.89499999999999,18.604999999999986,20,2,15,17,145,2,46,84,6,0.5,41,5.75,6,L,0.19519999999999998,0.0915,0.25858695652173913,0.2214880952380952
27,1,2,0,8,13.05399999999999,17,80,111,120,16,13,16.16499999999999,7.258999999999994,1.7079999999999989,11.345999999999991,20,13,8,17,96,34,8,43,2,0,16,4,6,L,0.16838541666666665,0.2135,0.2135,0.26386046511627903
27,2,3,0,9,26.59599999999998,14,118,64,66,70,68,28.242999999999977,2.3789999999999982,0.488,2.744999999999998,20,10,4,8,127,12,4,11,4,1,48,4,6,L,0.22238582677165353,0.19824999999999998,0.122,0.24954545454545451
27,2,4,0,2,38.73499999999997,20,173,59,55,26,52,40.32099999999997,1.0369999999999995,3.598999999999997,0.244,20,5,7,1,177,6,10,1,4,0.5,29,4.25,6,L,0.22780225988700564,0.17283333333333334,0.35989999999999994,0.244
27,3,5,0,8,15.371999999999987,17,88,109,119,113,114,16.530999999999988,3.1719999999999975,1.0979999999999994,1.2199999999999993,20,9,4,5,95,13,4,5,2,1,24,2,6,L,0.17401052631578948,0.244,0.27449999999999997,0.244
27,3,6,0,4,9.210999999999993,18,50,100,74,106,105,13.17599999999999,33.915999999999976,0.061,0.122,20,19,1,2,69,136,1,2,2,0.5,15,2.25,6,L,0.1909565217391304,0.24938235294117644,0.061,0.061
27,4,7,0,6,27.632999999999978,18,116,12,1,11,53,27.693999999999978,8.051999999999994,3.9649999999999967,2.805999999999998,19,16,12,8,117,37,16,9,6,0.5,40,5.5,6,L,0.23670085470085467,0.2176216216216216,0.2478125,0.3117777777777777
27,4,8,0,5,53.92399999999996,18,224,46,23,62,14,54.594999999999956,1.0369999999999995,4.879999999999996,1.7079999999999989,20,2,14,6,228,2,25,8,5,0,21,5.25,6,L,0.2394517543859649,0.5185,0.19519999999999998,0.2135
27,5,9,0,7,23.240999999999982,19,111,18,69,23,36,23.301999999999982,3.598999999999997,1.7689999999999988,6.343999999999995,20,10,7,13,112,13,8,29,6,0,21,5.25,6,L,0.2080535714285714,0.2768461538461538,0.221125,0.21875862068965515
27,5,10,0,1,19.092999999999986,20,93,76,41,106,103,25.55899999999998,20.556999999999984,1.7079999999999989,0.305,20,18,7,1,124,101,8,1,3,0,12,3,6,L,0.20612096774193547,0.20353465346534652,0.2135,0.305
28,1,1,0,9,29.950999999999976,14,130,70,63,66,43,30.133999999999975,1.0369999999999995,2.3789999999999982,2.439999999999998,17,6,6,8,133,7,6,11,4,0.5,29,4.25,6,L,0.22657142857142856,0.14814285714285713,0.3964999999999999,0.2218181818181818
28,1,2,0,8,18.177999999999987,17,84,110,20,114,117,19.946999999999985,4.330999999999997,3.903999999999997,1.585999999999999,20,11,11,5,92,22,15,5,2,0.5,18,3,6,L,0.21681521739130433,0.19686363636363635,0.26026666666666665,0.31719999999999987
28,2,3,0,10,17.689999999999987,14,75,95,86,90,89,19.702999999999985,2.805999999999998,0.366,1.8299999999999987,20,9,3,7,88,12,3,9,3,1,36,3,6,L,0.22389772727272725,0.23383333333333334,0.122,0.2033333333333333
28,2,4,0,4,9.210999999999993,20,53,97,107,108,104,9.820999999999993,0.7319999999999998,0.6709999999999998,4.208999999999997,20,5,5,12,57,6,5,18,2,1,24,2,6,L,0.1722982456140351,0.122,0.13419999999999999,0.2338333333333333
28,3,5,0,7,22.142999999999983,17,97,14,19,64,24,22.264999999999983,0.7929999999999997,3.720999999999997,0.244,19,7,9,2,99,9,13,2,6,0.5,40,5.5,6,L,0.22489898989898988,0.08811111111111111,0.2862307692307692,0.122
28,3,6,0,1,15.554999999999987,20,82,76,82,47,75,15.798999999999987,1.524999999999999,3.2939999999999974,0.8539999999999996,20,6,8,5,84,6,12,5,3,0.5,23,3.5,6,L,0.18808333333333332,0.25416666666666665,0.27449999999999997,0.1708
28,4,7,0,5,7.9299999999999935,14,44,17,38,43,47,27.14499999999998,0.122,0.244,0.7319999999999998,20,2,2,3,127,2,2,3,5,0.5,36,5.25,6,L,0.21374015748031494,0.061,0.122,0.244
28,4,8,0,3,16.774999999999988,19,83,35,32,29,12,17.079999999999988,3.2329999999999974,8.905999999999993,11.162999999999991,20,8,16,17,85,10,41,54,5,0.5,36,5.25,6,L,0.2009411764705882,0.3233,0.21721951219512195,0.20672222222222222
28,5,9,0,7,16.835999999999988,17,86,17,24,26,27,16.896999999999988,11.101999999999991,6.770999999999995,1.7689999999999988,18,15,14,6,87,53,29,7,6,0,22,5.5,6,L,0.19421839080459768,0.20947169811320754,0.23348275862068962,0.2527142857142857
28,5,10,0,5,18.177999999999987,19,86,40,39,48,1,18.848999999999986,3.1719999999999975,0.061,21.837999999999983,20,9,1,17,89,12,1,93,5,0.5,36,5.25,6,L,0.21178651685393257,0.2643333333333333,0.061,0.23481720430107525
29,1,1,0,10,22.508999999999983,19,100,86,85,13,91,23.118999999999982,0.8539999999999996,3.598999999999997,5.306999999999996,20,4,4,12,106,6,5,22,3,0.5,24,3.75,6,L,0.21810377358490565,0.14233333333333334,0.7197999999999997,0.2412272727272727
29,1,2,0,3,22.325999999999983,16,110,2,27,61,28,29.584999999999976,2.1349999999999985,6.8929999999999945,0.061,20,7,13,1,138,8,29,1,5,0,20,5,6,L,0.21438405797101448,0.266875,0.23768965517241375,0.061
29,2,3,0,8,54.16799999999996,19,217,110,52,109,118,54.22899999999996,1.0979999999999994,0.183,2.3179999999999983,20,2,1,8,218,4,1,12,2,0.5,16,2.5,6,L,0.24875688073394492,0.27449999999999997,0.183,0.19316666666666665
29,2,4,0,6,22.813999999999982,19,105,7,1,93,11,22.874999999999982,12.50499999999999,2.744999999999998,0.6099999999999999,20,17,9,3,106,55,10,3,6,0.5,39,5.25,6,L,0.21580188679245282,0.22736363636363635,0.27449999999999997,0.20333333333333334
29,3,5,0,10,31.658999999999974,19,137,86,89,67,34,33.793999999999976,0.6709999999999998,12.19999999999999,0.427,20,4,17,2,147,4,46,2,3,0,15,3.75,6,L,0.229891156462585,0.16775,0.2652173913043478,0.2135
29,3,6,0,4,19.397999999999985,20,86,107,97,104,105,21.532999999999983,3.2939999999999974,0.183,7.563999999999994,20,11,2,17,92,14,2,37,2,1,24,2,6,L,0.23405434782608692,0.23528571428571424,0.0915,0.20443243243243242
29,4,7,0,7,11.71199999999999,20,62,17,21,20,58,11.95599999999999,1.0979999999999994,2.8669999999999978,0.7929999999999997,20,4,11,2,64,4,15,2,6,0.5,40,5.5,6,L,0.1868125,0.27449999999999997,0.19113333333333332,0.39649999999999996
29,4,8,0,5,23.97299999999998,20,102,39,46,12,43,28.303999999999977,0.9759999999999995,3.9649999999999967,0.305,20,4,10,2,112,5,19,2,5,0.5,36,5.25,6,L,0.25271428571428567,0.19519999999999998,0.20868421052631575,0.1525
29,5,9,0,5,39.16199999999997,17,171,13,60,44,76,81.73999999999994,0.244,0.061,0.305,20,2,1,2,354,2,1,2,5,0,18,4.5,6,L,0.23090395480225986,0.122,0.061,0.1525
29,5,10,0,6,17.567999999999987,20,79,3,8,1,61,18.604999999999986,4.452999999999997,8.234999999999994,0.305,20,13,17,2,86,23,30,2,6,0.5,40,5.5,6,L,0.21633720930232556,0.1936086956521739,0.27449999999999997,0.1525
30,1,1,0,2,33.122999999999976,18,159,50,49,55,19,38.30799999999997,2.2569999999999983,1.463999999999999,1.2809999999999993,20,6,6,8,178,9,6,10,4,0.5,30,4.5,6,L,0.2152134831460674,0.25077777777777777,0.244,0.1281
30,1,2,0,3,20.312999999999985,19,101,36,32,33,61,20.617999999999984,4.025999999999997,5.062999999999996,1.1589999999999994,20,10,11,8,103,17,16,9,5,0.5,34,4.75,6,L,0.2001747572815534,0.23682352941176468,0.3164375,0.12877777777777777
30,2,3,0,2,24.88799999999998,20,134,51,50,54,49,25.68099999999998,0.122,2.9889999999999977,0.366,20,1,13,3,138,1,16,3,4,1,48,4,6,L,0.18609420289855072,0.122,0.1868125,0.122
30,2,4,0,6,16.896999999999988,19,82,7,1,10,9,17.079999999999988,3.2939999999999974,1.646999999999999,3.4159999999999973,20,11,3,9,85,12,4,12,6,1,72,6,6,L,0.20094117647058823,0.27449999999999997,0.4117499999999999,0.2846666666666666
30,3,5,0,3,21.532999999999983,20,108,35,33,69,64,21.837999999999983,10.247999999999992,6.770999999999995,11.406999999999991,20,15,14,16,110,33,32,48,5,0,18,4.5,6,L,0.19852727272727272,0.3105454545454545,0.21159374999999997,0.2376458333333333
30,3,6,0,2,14.151999999999989,13,69,60,53,38,57,15.188999999999988,0.122,1.8299999999999987,0.061,17,1,3,1,74,1,4,1,4,0.5,29,4.25,6,L,0.20525675675675675,0.122,0.4574999999999999,0.061
30,4,7,0,5,26.47399999999998,18,120,5,101,95,56,85.27799999999993,0.5489999999999999,0.061,0.488,20,1,1,3,342,1,1,3,5,0,15,3.75,6,L,0.24935087719298243,0.5489999999999999,0.061,0.16266666666666665
30,4,8,0,7,14.944999999999988,14,72,13,17,24,22,15.310999999999988,0.9759999999999995,0.122,13.602999999999989,17,6,1,15,75,7,1,48,6,1,72,6,6,L,0.20414666666666664,0.13942857142857143,0.122,0.2833958333333333
30,5,9,0,3,13.602999999999989,20,72,13,56,89,23,24.21699999999998,8.539999999999994,2.683999999999998,2.1349999999999985,20,17,9,9,112,46,9,9,5,0,19,4.75,6,L,0.21622321428571428,0.18565217391304348,0.29822222222222217,0.2372222222222222
30,5,10,0,1,26.71799999999998,15,129,4,80,6,8,56.424999999999955,0.122,0.366,8.295999999999994,20,1,3,14,244,1,3,35,3,0.5,39,5.25,6,L,0.23124999999999998,0.122,0.122,0.23702857142857142
31,1,1,0,2,21.227999999999984,19,103,55,51,54,7,21.593999999999983,2.2569999999999983,3.1109999999999975,7.136999999999994,20,7,12,16,105,7,18,35,4,0.5,30,4.5,6,L,0.20565714285714284,0.3224285714285714,0.1728333333333333,0.20391428571428571
31,1,2,0,10,29.889999999999976,20,137,87,86,91,31,30.011999999999976,4.513999999999997,1.9519999999999986,2.1349999999999985,20,11,6,9,139,17,8,10,3,0.5,23,3.5,6,L,0.21591366906474818,0.26552941176470585,0.24399999999999997,0.21349999999999997
31,2,3,0,5,14.761999999999988,19,61,41,2,48,82,15.249999999999988,18.726999999999986,0.061,0.305,20,19,1,1,64,73,1,1,5,0,19,4.75,6,L,0.23828125,0.2565342465753424,0.061,0.305
31,2,4,0,8,14.212999999999989,13,71,110,115,91,29,17.750999999999987,0.7319999999999998,1.7079999999999989,8.783999999999994,20,6,7,17,88,6,9,51,2,0,12,3,6,L,0.20171590909090908,0.122,0.18977777777777777,0.17223529411764704
31,3,5,0,4,20.556999999999984,19,85,102,101,99,7,21.227999999999984,0.427,4.818999999999996,2.3179999999999983,20,4,14,8,90,4,20,12,2,0.5,18,3,6,L,0.23586666666666664,0.10675,0.24094999999999997,0.19316666666666665
31,3,6,0,1,29.096999999999976,20,131,81,75,73,34,29.401999999999976,0.488,3.2939999999999974,1.1589999999999994,20,2,12,1,132,2,17,2,3,0.5,23,3.5,6,L,0.22274242424242421,0.244,0.19376470588235295,0.5794999999999997
31,4,7,0,6,15.249999999999988,20,82,5,4,9,88,17.323999999999987,7.075999999999994,7.807999999999994,0.061,20,17,17,1,88,39,31,1,6,0.5,39,5.25,6,L,0.19686363636363635,0.18143589743589744,0.25187096774193546,0.061
31,4,8,0,3,15.066999999999988,20,82,33,28,20,14,15.676999999999987,2.622999999999998,7.8689999999999936,4.818999999999996,20,8,15,10,85,13,37,16,5,0,22,5.5,6,L,0.18443529411764706,0.20176923076923076,0.21267567567567566,0.3011875
31,5,9,0,6,16.835999999999988,17,87,6,12,75,11,19.702999999999985,2.1349999999999985,3.2939999999999974,2.0129999999999986,20,6,9,8,101,7,14,8,6,0.5,39,5.25,6,L,0.19507920792079206,0.30499999999999994,0.23528571428571426,0.251625
31,5,10,0,7,21.044999999999984,20,112,24,18,86,33,22.569999999999983,3.476999999999997,2.805999999999998,6.404999999999995,20,10,8,15,119,19,10,30,6,0,20,5,6,L,0.18966386554621847,0.183,0.28059999999999996,0.2135
32,1,1,0,2,18.421999999999986,20,91,49,54,51,8,20.983999999999984,0.061,2.683999999999998,6.221999999999995,20,1,10,16,102,1,13,26,4,0.5,30,4.5,6,L,0.20572549019607841,0.061,0.20646153846153845,0.23930769230769228
32,1,2,0,8,28.364999999999977,19,136,115,109,116,35,28.425999999999977,2.3789999999999982,6.404999999999995,0.6099999999999999,20,8,14,4,137,14,27,5,2,0.5,17,2.75,6,L,0.2074890510948905,0.16992857142857143,0.23722222222222222,0.122
32,2,3,0,3,8.844999999999994,18,43,31,3,25,12,11.284999999999991,8.600999999999994,0.122,4.391999999999997,20,17,1,9,53,36,1,14,5,0,22,5.5,6,L,0.21292452830188677,0.23891666666666664,0.122,0.31371428571428567
32,2,4,0,10,29.950999999999976,20,150,88,39,13,15,31.170999999999975,6.526999999999995,3.1109999999999975,3.4159999999999973,20,15,9,10,157,29,15,15,3,0,20,5,6,L,0.19854140127388534,0.22506896551724137,0.20739999999999997,0.22773333333333332
32,3,5,0,8,22.142999999999983,20,100,109,117,115,112,22.203999999999983,0.305,0.8539999999999996,2.500999999999998,20,2,4,6,101,2,6,10,2,1,24,2,6,L,0.21984158415841581,0.1525,0.14233333333333334,0.2501
32,3,6,0,4,17.079999999999988,19,83,42,104,53,98,18.177999999999987,1.2199999999999993,11.223999999999991,0.366,20,3,16,2,86,3,50,3,2,0,13,3.25,6,L,0.2113720930232558,0.40666666666666657,0.22447999999999999,0.122
32,4,7,0,8,15.981999999999987,17,77,113,110,109,26,16.04299999999999,1.524999999999999,14.395999999999988,3.1719999999999975,18,5,17,8,78,5,64,11,2,0.5,17,2.75,6,L,0.20567948717948717,0.30499999999999994,0.22493749999999998,0.2883636363636363
32,4,8,0,2,22.020999999999983,18,119,53,57,14,55,24.15599999999998,7.258999999999994,14.334999999999988,1.0369999999999995,20,15,15,4,129,29,57,4,4,0.5,30,4.5,6,L,0.18725581395348836,0.2503103448275862,0.25149122807017543,0.25925
32,5,9,0,9,39.58899999999997,16,180,44,42,64,88,43.919999999999966,7.807999999999994,0.244,2.0129999999999986,20,16,1,8,202,25,1,9,4,0,17,4.25,6,L,0.2174257425742574,0.31232,0.244,0.22366666666666665
32,5,10,0,7,10.064999999999992,19,59,14,20,15,18,11.162999999999991,0.366,0.7929999999999997,2.3179999999999983,20,3,5,9,68,3,6,13,6,1,72,6,6,L,0.16416176470588234,0.122,0.13216666666666665,0.1783076923076923
33,1,1,0,2,17.384999999999987,18,89,49,43,55,86,18.055999999999987,4.330999999999997,0.9149999999999996,6.587999999999995,20,12,5,15,92,19,5,30,4,0,16,4,6,L,0.19626086956521738,0.22794736842105262,0.183,0.21959999999999996
33,1,2,0,1,22.386999999999983,20,93,80,76,73,33,22.813999999999982,2.9889999999999977,4.452999999999997,1.1589999999999994,20,9,12,4,95,11,18,4,3,0.5,23,3.5,6,L,0.2401473684210526,0.2717272727272727,0.24738888888888888,0.28974999999999995
33,2,3,0,1,19.336999999999986,20,78,14,80,29,64,45.017999999999965,1.524999999999999,0.183,0.6099999999999999,20,7,1,2,182,8,1,2,3,0,18,4.5,6,L,0.24735164835164833,0.190625,0.183,0.305
33,2,4,0,10,21.593999999999983,20,96,85,6,40,59,22.630999999999982,7.685999999999994,8.783999999999994,0.488,20,14,14,3,103,35,41,3,3,0,18,4.5,6,L,0.21971844660194173,0.21959999999999996,0.2142439024390244,0.16266666666666665
33,3,5,0,1,10.369999999999992,19,49,8,1,68,84,32.69599999999998,2.622999999999998,1.0369999999999995,0.061,20,7,5,1,131,8,6,1,3,0,19,4.75,6,L,0.24958778625954195,0.3278749999999999,0.17283333333333334,0.061
33,3,6,0,2,24.09499999999998,20,113,53,51,23,22,26.96199999999998,3.903999999999997,3.903999999999997,1.8909999999999987,20,12,11,8,124,20,21,11,4,0,20,5,6,L,0.21743548387096773,0.19519999999999998,0.18590476190476188,0.1719090909090909
33,4,7,0,9,36.23399999999997,20,155,63,61,42,16,36.47799999999997,1.1589999999999994,7.136999999999994,1.585999999999999,20,6,13,5,159,7,27,5,4,0,19,4.75,6,L,0.22942138364779874,0.16557142857142856,0.2643333333333333,0.3172
33,4,8,0,3,30.438999999999975,17,153,30,36,25,11,32.02499999999998,2.683999999999998,0.061,5.245999999999996,20,10,1,14,162,14,1,18,5,0.5,36,5.25,6,L,0.19768518518518519,0.1917142857142857,0.061,0.2914444444444444
33,5,9,0,3,22.508999999999983,20,109,31,26,27,75,23.240999999999982,3.903999999999997,3.2329999999999974,5.001999999999996,20,8,14,13,114,13,16,18,5,0.5,33,4.5,6,L,0.20386842105263156,0.3003076923076922,0.20206249999999998,0.27788888888888885
33,5,10,0,7,12.99299999999999,13,61,17,15,45,19,14.029999999999989,4.635999999999997,1.8909999999999987,5.245999999999996,15,11,8,15,63,15,11,25,6,0.5,41,5.75,6,L,0.22269841269841267,0.30906666666666666,0.1719090909090909,0.20983999999999997
34,1,1,0,3,26.35199999999998,18,128,33,27,35,64,26.83999999999998,3.720999999999997,0.122,14.151999999999989,20,12,1,17,132,19,1,64,5,0.5,34,4.75,6,L,0.2033333333333333,0.19584210526315787,0.122,0.221125
34,1,2,0,5,15.432999999999987,19,76,18,19,51,48,37.33199999999997,4.208999999999997,0.9759999999999995,0.061,20,13,3,1,166,21,3,1,5,0,21,5.25,6,L,0.2248915662650602,0.2004285714285714,0.32533333333333325,0.061
34,2,3,0,5,24.15599999999998,20,115,46,37,73,41,24.21699999999998,1.0979999999999994,9.393999999999993,2.1349999999999985,20,6,16,8,116,6,33,8,5,0.5,33,4.5,6,L,0.20876724137931033,0.183,0.2846666666666666,0.266875
34,2,4,0,3,18.604999999999986,19,90,31,59,87,109,20.007999999999985,19.336999999999986,4.513999999999997,2.683999999999998,20,19,14,11,97,81,23,14,5,0,14,3.5,6,L,0.20626804123711337,0.23872839506172838,0.19626086956521738,0.1917142857142857
34,3,5,0,6,21.227999999999984,19,87,2,4,5,39,21.288999999999984,5.062999999999996,3.842999999999997,0.5489999999999999,20,13,8,1,88,17,11,1,6,0.5,41,5.75,6,L,0.24192045454545452,0.29782352941176465,0.34936363636363627,0.5489999999999999
34,3,6,0,1,20.373999999999985,20,108,74,28,78,80,20.861999999999984,7.319999999999994,0.061,0.061,20,13,1,1,110,24,1,1,3,0.5,23,3.5,6,L,0.18965454545454544,0.30499999999999994,0.061,0.061
34,4,7,0,7,19.580999999999985,20,83,17,15,14,19,21.105999999999984,0.9759999999999995,11.040999999999991,2.805999999999998,20,4,17,7,89,4,48,8,6,1,72,6,6,L,0.23714606741573033,0.244,0.23002083333333329,0.35074999999999995
34,4,8,0,6,13.846999999999989,19,70,11,12,72,3,22.691999999999982,0.122,5.123999999999996,3.1109999999999975,20,1,13,11,100,1,18,14,6,0.5,40,5.5,6,L,0.22691999999999998,0.122,0.2846666666666666,0.2222142857142857
34,5,9,0,2,16.652999999999988,16,79,57,60,90,88,29.40199999999998,0.7319999999999998,2.0129999999999986,4.025999999999997,20,4,7,14,138,4,7,18,4,0,14,3.5,6,L,0.21305797101449273,0.183,0.28757142857142853,0.22366666666666665
34,5,10,0,6,14.334999999999988,20,66,1,3,4,7,16.713999999999988,0.5489999999999999,3.659999999999997,3.0499999999999976,20,2,11,11,79,2,13,12,6,1,72,6,6,L,0.21156962025316453,0.27449999999999997,0.2815384615384615,0.25416666666666665
35,1,1,0,5,40.32099999999997,20,176,48,37,86,51,42.45599999999997,0.7929999999999997,4.452999999999997,1.524999999999999,20,6,15,2,183,6,23,2,5,0,17,4.25,6,L,0.23199999999999998,0.13216666666666665,0.1936086956521739,0.7624999999999996
35,1,2,0,8,19.397999999999985,19,83,114,109,16,119,20.190999999999985,2.1349999999999985,5.7949999999999955,1.8299999999999987,20,9,13,8,90,11,21,9,2,0.5,18,3,6,L,0.22434444444444443,0.1940909090909091,0.2759523809523809,0.20333333333333334
35,2,3,0,1,41.29699999999997,18,171,79,82,16,74,41.47999999999997,5.123999999999996,7.380999999999994,2.2569999999999983,19,13,15,11,172,24,29,11,3,0.5,24,3.75,6,L,0.2411627906976744,0.21349999999999997,0.2545172413793103,0.20518181818181816
35,2,4,0,4,18.726999999999986,19,82,69,108,2,105,26.04699999999998,2.683999999999998,1.524999999999999,0.061,20,9,4,1,110,11,4,1,2,0,14,3.5,6,L,0.23679090909090908,0.244,0.3812499999999999,0.061
35,3,5,0,2,22.691999999999982,20,105,17,53,88,43,43.797999999999966,1.0979999999999994,0.6709999999999998,1.585999999999999,20,7,1,5,193,8,1,5,4,0,18,4.5,6,L,0.22693264248704662,0.13724999999999998,0.6709999999999998,0.3172
35,3,6,0,1,25.86399999999998,20,127,76,82,75,79,26.96199999999998,0.8539999999999996,0.366,0.9149999999999996,20,6,2,3,132,7,2,4,3,1,36,3,6,L,0.20425757575757575,0.122,0.183,0.22874999999999998
35,4,7,0,4,29.462999999999976,20,142,102,41,53,97,30.316999999999975,8.173999999999994,0.7319999999999998,0.6709999999999998,20,14,2,5,145,27,3,5,2,0,13,3.25,6,L,0.20908275862068965,0.3027407407407407,0.244,0.13419999999999999
35,4,8,0,1,20.251999999999985,19,95,76,80,65,79,21.898999999999983,0.122,6.8929999999999945,3.2329999999999974,20,1,14,10,102,1,31,16,3,0.5,22,3.25,6,L,0.21469607843137253,0.122,0.2223548387096774,0.20206249999999998
35,5,9,0,1,25.80299999999998,19,125,83,51,77,59,35.074999999999974,0.488,0.183,3.659999999999997,20,2,1,11,171,2,1,12,3,0,14,3.5,6,L,0.20511695906432748,0.244,0.183,0.305
35,5,10,0,4,37.75899999999997,18,164,101,102,103,64,40.44299999999997,0.183,1.3419999999999992,24.39999999999998,20,3,5,17,179,3,7,103,2,0.5,16,2.5,6,L,0.2259385474860335,0.061,0.1917142857142857,0.2368932038834951
36,1,1,0,7,32.02499999999998,19,143,24,31,25,13,32.14699999999998,9.454999999999993,2.2569999999999983,2.3789999999999982,20,17,10,8,145,47,10,11,6,0,22,5.5,6,L,0.22170344827586205,0.20117021276595745,0.22569999999999998,0.21627272727272726
36,1,2,0,4,30.865999999999975,18,127,103,100,68,97,31.658999999999974,0.6099999999999999,7.075999999999994,0.183,20,4,14,3,134,5,27,3,2,0.5,16,2.5,6,L,0.2362611940298507,0.122,0.26207407407407407,0.061
36,2,3,0,5,13.23699999999999,19,80,46,5,42,44,13.846999999999989,11.71199999999999,0.8539999999999996,1.1589999999999994,20,16,4,5,85,46,5,5,5,0.5,36,5.25,6,L,0.16290588235294118,0.25460869565217387,0.1708,0.23179999999999995
36,2,4,0,8,17.689999999999987,19,80,119,117,27,81,17.750999999999987,0.7319999999999998,9.454999999999993,0.8539999999999996,20,4,16,2,81,4,46,2,2,0,12,3,6,L,0.21914814814814812,0.183,0.20554347826086955,0.4269999999999998
36,3,5,0,2,14.517999999999988,19,78,15,53,49,56,19.214999999999986,0.5489999999999999,0.488,0.061,20,3,3,1,93,3,3,1,4,0.5,30,4.5,6,L,0.20661290322580644,0.183,0.16266666666666665,0.061
36,3,6,0,6,19.153999999999986,17,89,8,12,9,11,19.214999999999986,0.244,3.842999999999997,0.122,18,2,9,1,90,2,11,2,6,1,72,6,6,L,0.2135,0.122,0.3493636363636363,0.061
36,4,7,0,6,11.284999999999991,14,66,7,6,10,11,11.406999999999991,7.624999999999994,1.7079999999999989,0.061,16,18,9,1,68,34,10,1,6,1,72,6,6,L,0.16774999999999998,0.22426470588235292,0.1708,0.061
36,4,8,0,2,24.21699999999998,19,131,49,14,55,30,25.19299999999998,5.672999999999996,0.305,6.160999999999995,20,13,2,12,133,25,2,28,4,0,19,4.75,6,L,0.18942105263157893,0.22691999999999998,0.1525,0.22003571428571428
36,5,9,0,8,16.591999999999988,17,74,110,109,76,116,19.458999999999985,2.2569999999999983,1.8299999999999987,0.488,20,10,6,3,90,13,9,3,2,0.5,15,2.25,6,L,0.2162111111111111,0.17361538461538462,0.2033333333333333,0.16266666666666665
36,5,10,0,4,35.074999999999974,20,159,105,108,102,101,35.867999999999974,1.2809999999999993,3.598999999999997,2.744999999999998,20,4,11,9,164,5,14,14,2,1,24,2,6,L,0.2187073170731707,0.25619999999999993,0.25707142857142856,0.19607142857142856
37,1,1,0,6,19.885999999999985,20,100,5,4,65,62,21.044999999999984,32.26899999999998,0.366,0.366,20,19,4,2,105,129,4,2,6,0,20,5,6,L,0.20042857142857143,0.2501472868217054,0.0915,0.183
37,1,2,0,10,21.715999999999983,19,103,93,91,15,94,23.240999999999982,0.488,0.305,1.2199999999999993,20,2,2,3,107,2,2,3,3,0.5,24,3.75,6,L,0.2172056074766355,0.244,0.1525,0.4066666666666666
37,2,3,0,2,27.205999999999978,20,139,56,51,59,6,27.266999999999978,5.672999999999996,3.659999999999997,8.966999999999993,20,14,11,17,140,26,15,39,4,0.5,30,4.5,6,L,0.1947642857142857,0.21819230769230769,0.24399999999999997,0.2299230769230769
37,2,4,0,9,19.214999999999986,18,93,68,70,67,13,20.739999999999984,0.305,2.8669999999999978,4.147999999999997,20,2,10,12,106,2,12,17,4,0.5,30,4.5,6,L,0.19566037735849054,0.1525,0.23891666666666664,0.24399999999999997
37,3,5,0,8,9.210999999999993,16,47,118,114,15,110,10.491999999999992,0.7929999999999997,12.80999999999999,2.8669999999999978,20,5,17,8,53,5,52,10,2,0.5,18,3,6,L,0.19796226415094337,0.1586,0.24634615384615383,0.28669999999999995
37,3,6,0,10,22.081999999999983,20,99,4,38,94,86,29.584999999999976,2.2569999999999983,0.122,0.6099999999999999,20,4,1,4,139,4,1,4,3,0,17,4.25,6,L,0.212841726618705,0.5642499999999998,0.122,0.1525
37,4,7,0,1,15.310999999999988,17,82,77,74,6,83,16.469999999999988,1.1589999999999994,5.855999999999995,0.244,20,5,12,2,89,5,23,2,3,0.5,24,3.75,6,L,0.18505617977528088,0.23179999999999995,0.2546086956521739,0.122
37,4,8,0,7,22.630999999999982,17,95,24,18,17,56,25.31499999999998,1.2809999999999993,19.275999999999986,0.183,20,6,17,2,108,7,69,2,6,0.5,40,5.5,6,L,0.23439814814814813,0.18299999999999997,0.27936231884057966,0.0915
37,5,9,0,3,53.67999999999996,17,228,34,35,30,92,55.082999999999956,1.3419999999999992,4.208999999999997,1.3419999999999992,20,6,10,5,235,6,19,6,5,0.5,33,4.5,6,L,0.23439574468085103,0.22366666666666665,0.22152631578947365,0.22366666666666665
37,5,10,0,7,25.74199999999998,18,112,13,21,20,37,25.80299999999998,4.635999999999997,16.469999999999988,5.916999999999995,19,10,17,14,113,15,62,26,6,0.5,41,5.75,6,L,0.2283451327433628,0.3090666666666666,0.26564516129032256,0.22757692307692307
38,1,1,0,8,20.983999999999984,17,90,110,109,118,119,21.410999999999984,1.4029999999999991,0.183,6.953999999999994,20,5,2,15,93,6,2,32,2,1,24,2,6,L,0.2302258064516129,0.2338333333333333,0.0915,0.2173125
38,1,2,0,3,26.35199999999998,14,117,31,33,25,30,28.669999999999977,0.427,3.842999999999997,0.061,20,2,13,1,126,3,20,1,5,1,60,5,6,L,0.22753968253968251,0.14233333333333334,0.19215,0.061
38,2,3,0,10,39.58899999999997,19,177,91,95,85,87,40.44299999999997,0.183,0.366,2.9279999999999977,20,1,2,10,181,1,2,12,3,1,36,3,6,L,0.22344198895027623,0.183,0.183,0.24399999999999997
38,2,4,0,2,27.327999999999978,16,132,58,57,50,78,27.815999999999978,2.2569999999999983,0.244,12.62699999999999,20,6,1,16,136,8,1,57,4,0.5,27,3.75,6,L,0.20452941176470588,0.28212499999999996,0.244,0.22152631578947365
38,3,5,0,10,22.569999999999983,19,107,13,86,20,18,41.47999999999997,0.7929999999999997,0.427,0.7929999999999997,20,7,3,4,188,7,3,4,3,0.5,39,5.25,6,L,0.2206382978723404,0.11328571428571428,0.14233333333333334,0.19824999999999998
38,3,6,0,3,19.275999999999986,15,95,3,81,49,78,48.18999999999996,0.244,0.122,0.183,20,1,2,2,222,1,2,2,5,0,16,4,6,L,0.21707207207207205,0.244,0.061,0.0915
38,4,7,0,10,13.48099999999999,20,65,93,96,85,15,14.578999999999988,3.9649999999999967,3.1719999999999975,8.600999999999994,20,10,10,15,68,14,17,44,3,0.5,24,3.75,6,L,0.2143970588235294,0.2832142857142857,0.1865882352941176,0.1954772727272727
38,4,8,0,4,14.090999999999989,16,63,99,100,105,104,14.944999999999988,0.7319999999999998,0.366,0.488,19,4,3,4,66,4,3,5,2,1,24,2,6,L,0.2264393939393939,0.183,0.122,0.09759999999999999
38,5,9,0,3,15.005999999999988,17,73,13,14,96,91,48.49499999999996,6.953999999999994,2.1349999999999985,1.7079999999999989,20,16,6,5,222,33,9,6,5,0,18,4.5,6,L,0.21844594594594594,0.2107272727272727,0.23722222222222222,0.2846666666666666
38,5,10,0,6,17.994999999999987,19,88,6,12,81,8,19.275999999999986,4.635999999999997,3.2329999999999974,0.6709999999999998,20,14,7,4,94,19,12,4,6,0.5,39,5.25,6,L,0.20506382978723403,0.24399999999999997,0.26941666666666664,0.16775
39,1,1,0,10,32.75699999999998,20,134,95,1,85,29,41.72399999999997,7.685999999999994,0.061,0.305,20,17,1,2,176,33,1,2,3,0,17,4.25,6,L,0.2370681818181818,0.2329090909090909,0.061,0.1525
39,1,2,0,4,28.730999999999977,20,132,105,101,107,14,31.048999999999975,0.244,1.8909999999999987,1.524999999999999,20,3,7,6,141,3,11,6,2,0.5,18,3,6,L,0.22020567375886524,0.08133333333333333,0.1719090909090909,0.25416666666666665
39,2,3,0,4,15.920999999999987,18,68,101,107,102,103,16.34799999999999,0.8539999999999996,0.122,1.9519999999999986,20,4,1,9,71,4,1,14,2,1,24,2,6,L,0.23025352112676054,0.2135,0.122,0.13942857142857143
39,2,4,0,8,19.519999999999985,17,95,110,117,113,120,28.36499999999998,0.488,0.488,0.488,20,2,3,2,136,2,3,3,2,1,24,2,6,L,0.20856617647058823,0.244,0.16266666666666665,0.16266666666666665
39,3,5,0,2,27.693999999999978,17,136,52,60,50,58,27.937999999999978,2.3179999999999983,0.366,3.1109999999999975,19,9,1,10,139,10,1,14,4,1,48,4,6,L,0.20099280575539566,0.23179999999999998,0.366,0.2222142857142857
39,3,6,0,4,28.852999999999977,18,137,99,105,16,82,31.170999999999975,1.3419999999999992,14.578999999999988,2.0129999999999986,20,6,16,6,147,7,58,6,2,0,13,3.25,6,L,0.21204761904761904,0.1917142857142857,0.2513620689655172,0.3354999999999999
39,4,7,0,9,13.35899999999999,18,64,72,68,118,114,17.994999999999987,4.025999999999997,1.585999999999999,7.136999999999994,20,11,9,14,88,20,12,16,4,0,12,3,6,L,0.20448863636363634,0.20129999999999998,0.13216666666666665,0.44606249999999986
39,4,8,0,3,6.770999999999995,15,35,32,31,106,80,8.356999999999994,3.903999999999997,4.879999999999996,8.661999999999994,20,11,12,15,40,19,19,43,5,0,15,3.75,6,L,0.20892499999999997,0.2054736842105263,0.25684210526315787,0.20144186046511628
39,5,9,0,2,12.80999999999999,18,65,54,58,53,92,14.700999999999988,3.598999999999997,8.722999999999994,8.112999999999994,20,13,15,12,78,18,33,24,4,0.5,27,3.75,6,L,0.18847435897435896,0.19994444444444442,0.2643333333333333,0.33804166666666663
39,5,10,0,3,21.959999999999983,18,104,16,31,32,19,58.01099999999995,0.183,0.061,0.244,20,2,1,1,252,2,1,1,5,0,22,5.5,6,L,0.23020238095238094,0.0915,0.061,0.244
40,1,1,0,3,15.249999999999988,20,76,29,25,27,34,17.567999999999987,7.258999999999994,0.7929999999999997,5.672999999999996,20,16,4,14,87,29,4,29,5,1,60,5,6,L,0.20193103448275862,0.2503103448275862,0.19824999999999998,0.1956206896551724
40,1,2,0,2,9.515999999999993,16,43,58,82,3,54,10.857999999999992,7.685999999999994,7.075999999999994,0.7319999999999998,20,14,16,5,47,34,30,5,4,0,17,4.25,6,L,0.23102127659574467,0.22605882352941173,0.23586666666666664,0.1464
40,2,3,0,8,22.996999999999982,20,107,112,110,2,115,29.889999999999976,2.0129999999999986,0.244,0.488,20,7,1,3,137,9,1,3,2,0.5,18,3,6,L,0.2181751824817518,0.22366666666666665,0.244,0.16266666666666665
40,2,4,0,3,19.092999999999986,20,87,34,30,27,22,19.214999999999986,3.1719999999999975,4.208999999999997,2.744999999999998,20,11,12,12,88,13,17,14,5,0.5,36,5.25,6,L,0.2183522727272727,0.244,0.24758823529411764,0.19607142857142856
40,3,5,0,3,26.59599999999998,14,121,29,31,34,33,26.83999999999998,2.2569999999999983,3.598999999999997,3.2939999999999974,16,10,8,12,123,14,18,14,5,1,60,5,6,L,0.2182113821138211,0.1612142857142857,0.19994444444444442,0.23528571428571426
40,3,6,0,5,57.82799999999995,15,253,48,39,44,66,58.37699999999995,2.0739999999999985,3.3549999999999973,3.598999999999997,18,6,9,10,257,9,10,13,5,0.5,34,4.75,6,L,0.22714785992217895,0.23044444444444445,0.33549999999999996,0.2768461538461538
40,4,7,0,3,15.249999999999988,19,80,34,36,30,14,15.737999999999987,2.1349999999999985,1.0369999999999995,19.763999999999985,20,8,4,15,83,9,4,77,5,0.5,36,5.25,6,L,0.1896144578313253,0.23722222222222222,0.25925,0.25667532467532467
40,4,8,0,10,17.628999999999987,15,86,1,93,55,7,45.017999999999965,0.061,0.305,0.9149999999999996,20,1,3,6,199,1,4,6,3,0,19,4.75,6,L,0.22622110552763816,0.061,0.07625,0.1525
40,5,9,0,7,15.798999999999987,20,75,14,50,19,43,15.859999999999987,1.463999999999999,9.820999999999993,37.33199999999997,20,4,14,15,76,5,34,149,6,0,21,5.25,6,L,0.20868421052631578,0.29279999999999995,0.28885294117647053,0.2505503355704698
40,5,10,0,4,24.27799999999998,20,126,98,106,108,104,24.82699999999998,2.683999999999998,1.7079999999999989,2.2569999999999983,20,9,8,8,129,10,8,11,2,1,24,2,6,L,0.19245736434108526,0.26839999999999997,0.21349999999999997,0.20518181818181816
41,1,1,0,2,22.874999999999982,19,113,4,5,83,7,39.89399999999997,14.578999999999988,0.6709999999999998,0.122,20,19,1,1,177,61,2,1,4,0.5,39,5.25,6,L,0.22538983050847455,0.23899999999999996,0.3354999999999999,0.122
41,1,2,0,8,20.434999999999985,18,103,109,62,71,119,21.105999999999984,7.746999999999994,5.367999999999996,0.244,20,17,14,2,107,31,26,2,2,0,12,3,6,L,0.19725233644859813,0.24990322580645155,0.20646153846153845,0.122
41,2,3,0,1,18.604999999999986,19,100,79,5,110,4,19.702999999999985,23.057999999999982,11.71199999999999,13.35899999999999,20,19,17,16,106,87,40,49,3,0,17,4.25,6,L,0.18587735849056602,0.2650344827586206,0.29279999999999995,0.2726326530612245
41,2,4,0,10,20.739999999999984,15,99,88,94,89,96,21.959999999999983,0.5489999999999999,0.366,1.524999999999999,19,2,2,6,106,2,2,9,3,1,36,3,6,L,0.2071698113207547,0.27449999999999997,0.183,0.16944444444444445
41,3,5,0,4,29.828999999999976,20,122,106,105,102,41,31.048999999999975,0.7929999999999997,2.8669999999999978,2.3789999999999982,20,6,11,8,127,6,11,10,2,0.5,17,2.75,6,L,0.24448031496062989,0.13216666666666665,0.2606363636363636,0.2379
41,3,6,0,1,16.34799999999999,15,74,78,77,81,80,16.957999999999988,0.122,4.330999999999997,2.744999999999998,17,1,11,6,76,1,18,9,3,1,36,3,6,L,0.2231315789473684,0.122,0.2406111111111111,0.30499999999999994
41,4,7,0,2,15.493999999999987,19,66,49,56,59,3,19.397999999999985,0.305,10.369999999999992,4.6969999999999965,20,3,17,11,82,3,54,16,4,0.5,30,4.5,6,L,0.23656097560975609,0.10166666666666667,0.192037037037037,0.29356249999999995
41,4,8,0,8,13.968999999999989,18,78,112,119,14,109,14.395999999999988,3.2329999999999974,12.07799999999999,0.366,20,9,17,4,82,11,51,4,2,0.5,18,3,6,L,0.1755609756097561,0.2939090909090909,0.23682352941176468,0.0915
41,5,9,0,10,26.96199999999998,19,129,92,86,85,93,27.327999999999978,0.9759999999999995,1.7079999999999989,2.3789999999999982,20,4,6,9,133,4,7,14,3,1,36,3,6,L,0.2054736842105263,0.24399999999999994,0.244,0.16992857142857143
41,5,10,0,1,20.922999999999984,20,108,76,83,79,74,23.42399999999998,1.7079999999999989,0.305,2.9889999999999977,20,5,2,11,120,5,2,17,3,1,36,3,6,L,0.19519999999999998,0.3415999999999999,0.1525,0.1758235294117647
42,1,1,0,5,34.098999999999975,20,160,43,66,37,62,37.08799999999997,2.500999999999998,0.244,1.585999999999999,20,7,2,7,170,9,2,9,5,0,18,4.5,5,L,0.21816470588235293,0.27788888888888885,0.122,0.1762222222222222
42,1,2,0,3,24.03399999999998,20,105,30,28,29,34,25.80299999999998,4.391999999999997,1.8909999999999987,0.366,20,8,7,3,114,16,8,3,5,1,60,5,5,L,0.22634210526315787,0.27449999999999997,0.23637499999999997,0.122
42,2,3,0,3,42.33399999999997,15,180,28,30,34,36,44.224999999999966,2.3179999999999983,0.305,0.9759999999999995,20,6,2,4,185,9,2,5,5,1,60,5,5,L,0.23905405405405403,0.25755555555555554,0.1525,0.19519999999999998
42,2,4,0,8,31.292999999999974,20,142,119,120,116,117,31.536999999999974,0.7319999999999998,2.744999999999998,0.7929999999999997,20,3,6,3,144,4,6,3,2,1,24,2,5,L,0.21900694444444443,0.183,0.45749999999999985,0.2643333333333333
42,3,5,0,9,40.01599999999997,16,186,63,13,89,16,47.88499999999996,6.953999999999994,0.122,0.6099999999999999,20,13,1,4,225,24,1,4,4,0,19,4.75,5,L,0.2128222222222222,0.28974999999999995,0.122,0.1525
42,3,6,0,2,20.068999999999985,14,107,51,57,53,2,21.349999999999984,4.6969999999999965,1.0979999999999994,4.452999999999997,17,11,5,11,111,17,5,16,4,0.5,30,4.5,5,L,0.19234234234234232,0.2762941176470588,0.2196,0.27831249999999996
42,4,7,0,3,27.08399999999998,16,119,28,26,7,25,28.669999999999977,1.7079999999999989,14.944999999999988,3.9649999999999967,20,6,17,12,124,8,63,18,5,0.5,36,5.25,5,L,0.2312096774193548,0.21349999999999997,0.2372222222222222,0.22027777777777774
42,4,8,0,9,63.07399999999995,14,251,64,63,18,16,70.69899999999994,0.5489999999999999,0.366,1.2809999999999993,20,3,2,4,280,3,2,4,4,0,20,5,5,L,0.25249642857142857,0.183,0.183,0.3202499999999999
43,1,1,0,1,23.91199999999998,20,128,77,83,81,25,23.97299999999998,1.4029999999999991,1.2199999999999993,5.428999999999996,20,10,3,10,129,12,4,22,3,0.5,23,3.5,6,L,0.18583720930232556,0.11691666666666667,0.305,0.24677272727272723
43,1,2,0,5,27.632999999999978,19,128,46,37,23,48,27.693999999999978,0.183,2.439999999999998,1.3419999999999992,20,2,6,3,129,2,8,3,5,0.5,36,5.25,6,L,0.21468217054263564,0.0915,0.305,0.44733333333333325
43,2,3,0,9,20.312999999999985,18,98,65,63,33,61,20.434999999999985,1.2809999999999993,13.846999999999989,0.9149999999999996,20,7,18,3,100,8,62,3,4,0.5,29,4.25,6,L,0.20435,0.160125,0.22333870967741934,0.30499999999999994
43,2,4,0,2,39.89399999999997,17,175,50,49,44,93,39.95499999999997,5.184999999999996,3.537999999999997,5.428999999999996,18,14,6,11,176,21,11,22,4,0,16,4,6,L,0.22701704545454543,0.24690476190476188,0.3216363636363636,0.24677272727272725
43,3,5,0,2,16.652999999999988,20,95,49,58,33,53,21.532999999999983,0.366,8.234999999999994,0.305,20,3,14,2,113,3,30,2,4,0.5,29,4.25,6,L,0.1905575221238938,0.122,0.2744999999999999,0.1525
43,3,6,0,9,18.482999999999986,19,97,71,72,68,1,20.678999999999984,1.7079999999999989,1.8909999999999987,5.916999999999995,20,8,5,14,103,8,7,24,4,0.5,30,4.5,6,L,0.20076699029126213,0.21349999999999997,0.27014285714285713,0.24654166666666663
43,4,7,0,8,20.251999999999985,20,96,118,111,49,22,20.800999999999984,1.524999999999999,8.234999999999994,7.075999999999994,20,7,13,12,100,7,30,26,2,0,14,3.5,6,L,0.20800999999999997,0.21785714285714286,0.27449999999999997,0.27215384615384614
43,4,8,0,6,20.922999999999984,19,99,11,68,8,40,21.227999999999984,14.090999999999989,2.3179999999999983,0.6099999999999999,20,16,7,4,101,58,9,4,6,0,21,5.25,6,L,0.21017821782178217,0.24294827586206894,0.2575555555555555,0.1525
43,5,9,0,5,19.946999999999985,20,113,45,86,9,1,24.88799999999998,5.489999999999996,4.330999999999997,12.80999999999999,20,18,12,17,129,31,18,57,5,0,20,5,6,L,0.19293023255813951,0.17709677419354838,0.2406111111111111,0.22473684210526315
43,5,10,0,7,8.966999999999993,14,45,13,20,15,14,9.881999999999993,0.366,2.500999999999998,8.661999999999994,17,3,6,14,48,3,6,42,6,1,72,6,6,L,0.205875,0.122,0.41683333333333317,0.20623809523809522
44,1,1,0,3,43.736999999999966,18,195,30,27,33,36,45.017999999999965,2.2569999999999983,3.598999999999997,0.6709999999999998,20,9,12,3,203,13,19,3,5,1,60,5,5,L,0.22176354679802954,0.17361538461538462,0.18942105263157893,0.22366666666666665
44,1,2,0,9,35.013999999999974,20,153,66,64,69,7,36.78299999999997,0.9759999999999995,0.5489999999999999,5.855999999999995,20,7,3,15,158,7,3,25,4,0.5,30,4.5,5,L,0.23280379746835442,0.13942857142857143,0.183,0.23423999999999998
44,2,3,0,3,15.859999999999987,19,71,72,96,33,34,18.970999999999986,10.369999999999992,3.3549999999999973,1.2199999999999993,20,18,13,5,81,47,15,5,5,0,17,4.25,5,L,0.23420987654320985,0.22063829787234038,0.22366666666666665,0.24399999999999997
44,2,4,0,5,33.427999999999976,20,152,77,79,16,46,61.06099999999995,10.979999999999992,7.502999999999994,0.366,20,18,17,3,273,41,29,3,5,0,17,4.25,5,L,0.22366666666666665,0.26780487804878045,0.2587241379310345,0.122
44,3,5,0,3,14.822999999999988,18,75,29,22,59,89,16.774999999999988,12.01699999999999,14.273999999999988,0.122,20,18,17,1,82,49,64,1,5,0,18,4.5,5,L,0.2045731707317073,0.24524489795918364,0.22303125,0.122
44,3,6,0,8,15.005999999999988,20,80,2,42,71,63,64.35499999999995,0.183,0.122,0.9759999999999995,20,2,1,2,279,2,1,2,2,0,19,4.75,5,L,0.23066308243727596,0.0915,0.122,0.4879999999999998
44,4,7,0,6,10.735999999999992,17,54,2,1,40,10,12.80999999999999,4.269999999999997,0.427,2.805999999999998,20,13,2,12,62,19,2,16,6,0.5,41,5.75,5,L,0.20661290322580644,0.22473684210526315,0.2135,0.175375
44,4,8,0,3,38.49099999999997,17,173,31,102,103,15,42.27299999999997,3.1719999999999975,2.0129999999999986,0.122,20,14,8,1,190,18,10,1,5,0,15,3.75,5,L,0.22248947368421051,0.1762222222222222,0.20129999999999998,0.122
45,1,1,0,1,17.567999999999987,19,83,83,81,77,75,17.994999999999987,0.366,6.953999999999994,5.123999999999996,20,2,17,12,86,2,37,18,3,1,36,3,6,L,0.20924418604651163,0.183,0.18794594594594594,0.2846666666666666
45,1,2,0,10,42.51699999999997,16,185,89,88,87,72,43.736999999999966,1.8299999999999987,0.7319999999999998,2.622999999999998,20,7,5,11,197,9,5,16,3,0.5,22,3.25,6,L,0.22201522842639593,0.2033333333333333,0.1464,0.16393749999999999
45,2,3,0,1,25.68099999999998,20,122,84,57,21,32,34.830999999999975,6.8319999999999945,0.183,1.0369999999999995,20,17,2,4,164,30,2,5,3,0,18,4.5,6,L,0.2123841463414634,0.22773333333333332,0.0915,0.20739999999999995
45,2,4,0,6,22.996999999999982,20,118,12,8,66,37,28.730999999999977,2.744999999999998,3.903999999999997,2.561999999999998,20,11,10,8,142,13,13,12,6,0,21,5.25,6,L,0.20233098591549295,0.21115384615384614,0.3003076923076923,0.21349999999999997
45,3,5,0,4,7.563999999999994,17,41,2,102,40,101,24.46099999999998,0.7319999999999998,0.061,0.427,20,3,1,3,106,4,1,3,2,0,15,3.75,6,L,0.2307641509433962,0.183,0.061,0.14233333333333334
45,3,6,0,1,14.273999999999988,15,61,83,81,74,75,15.432999999999987,1.1589999999999994,0.122,0.8539999999999996,20,7,2,3,67,7,2,3,3,1,36,3,6,L,0.23034328358208955,0.16557142857142856,0.061,0.2846666666666666
45,4,7,0,10,25.80299999999998,20,131,90,39,89,14,27.08399999999998,8.478999999999994,1.8299999999999987,6.038999999999995,20,18,9,9,137,43,12,18,3,0,17,4.25,6,L,0.1976934306569343,0.19718604651162788,0.1525,0.3354999999999999
45,4,8,0,3,19.458999999999985,18,90,26,29,36,57,30.56099999999998,0.9759999999999995,0.305,8.905999999999993,20,4,3,15,139,5,3,35,5,0.5,34,4.75,6,L,0.21986330935251797,0.19519999999999998,0.10166666666666667,0.2544571428571428
45,5,9,0,7,16.469999999999988,19,79,20,24,18,14,17.994999999999987,2.8669999999999978,1.646999999999999,1.524999999999999,20,8,4,7,88,14,4,8,6,1,72,6,6,L,0.20448863636363634,0.20478571428571427,0.41174999999999984,0.190625
45,5,10,0,1,53.86299999999996,16,234,1,4,84,33,70.08899999999994,0.5489999999999999,0.8539999999999996,2.622999999999998,20,2,5,8,304,2,5,11,3,0,20,5,6,L,0.23055592105263156,0.27449999999999997,0.1708,0.23845454545454545
46,1,1,0,8,34.708999999999975,19,167,118,13,90,61,35.379999999999974,10.186999999999992,4.269999999999997,0.122,20,15,14,1,170,41,22,1,2,0,15,3.75,6,L,0.20811764705882352,0.2484634146341463,0.1940909090909091,0.122
46,1,2,0,1,42.57799999999997,19,197,74,80,8,81,42.63899999999997,1.524999999999999,1.7689999999999988,4.940999999999996,20,9,7,11,198,11,8,18,3,0.5,24,3.75,6,L,0.21534848484848482,0.13863636363636364,0.221125,0.27449999999999997
46,2,3,0,8,19.519999999999985,20,97,112,120,117,116,19.824999999999985,0.244,1.2809999999999993,2.744999999999998,20,1,3,12,99,1,3,14,2,1,24,2,6,L,0.20025252525252524,0.244,0.4269999999999999,0.19607142857142856
46,2,4,0,4,39.28399999999997,16,185,97,107,43,54,39.34499999999997,1.524999999999999,5.489999999999996,7.380999999999994,17,4,11,13,186,5,23,34,2,0,13,3.25,6,L,0.21153225806451612,0.305,0.23869565217391303,0.21708823529411764
46,3,5,0,3,40.38199999999997,18,199,28,22,20,67,40.44299999999997,1.463999999999999,2.2569999999999983,7.197999999999994,19,4,10,14,200,5,13,34,5,0,21,5.25,6,L,0.20221499999999998,0.29279999999999995,0.17361538461538462,0.21170588235294116
46,3,6,0,2,31.719999999999974,20,137,51,90,3,12,35.074999999999974,3.0499999999999976,1.463999999999999,24.94899999999998,20,9,8,17,150,14,8,98,4,0,19,4.75,6,L,0.2338333333333333,0.21785714285714283,0.18299999999999997,0.25458163265306116
46,4,7,0,10,18.238999999999987,19,95,95,93,96,42,19.275999999999986,1.3419999999999992,2.805999999999998,4.452999999999997,20,6,6,8,103,9,7,10,3,0.5,23,3.5,6,L,0.18714563106796114,0.1491111111111111,0.4008571428571428,0.44529999999999986
46,4,8,0,6,22.447999999999983,20,116,5,9,99,4,23.60699999999998,5.306999999999996,2.9889999999999977,4.879999999999996,20,14,10,14,122,25,15,23,6,0.5,38,5,6,L,0.19349999999999998,0.21227999999999997,0.19926666666666668,0.21217391304347824
46,5,9,0,10,16.40899999999999,17,71,93,90,92,26,17.689999999999987,0.061,2.9279999999999977,0.366,20,1,7,1,79,1,8,1,3,0.5,23,3.5,6,L,0.22392405063291138,0.061,0.3659999999999999,0.366
46,5,10,0,7,14.639999999999988,19,90,13,20,16,24,17.201999999999988,3.842999999999997,2.3789999999999982,3.1109999999999975,20,11,9,11,100,20,13,16,6,1,72,6,6,L,0.17202,0.19215,0.183,0.19443749999999999
47,1,1,0,1,18.970999999999986,19,93,75,5,74,77,20.129999999999985,2.0129999999999986,2.439999999999998,2.0739999999999985,20,6,7,7,99,8,10,9,3,0.5,24,3.75,6,L,0.2033333333333333,0.251625,0.24399999999999997,0.23044444444444442
47,1,2,0,4,18.360999999999986,18,95,102,104,106,49,18.726999999999986,0.6709999999999998,0.8539999999999996,4.330999999999997,20,4,6,12,99,4,6,19,2,0.5,16,2.5,6,L,0.18916161616161614,0.16775,0.14233333333333334,0.2279473684210526
47,2,3,0,3,40.19899999999997,17,182,23,31,27,35,44.285999999999966,2.3179999999999983,0.061,0.305,20,9,1,3,198,11,1,3,5,0.5,36,5.25,6,L,0.22366666666666665,0.2107272727272727,0.061,0.10166666666666667
47,2,4,0,6,34.769999999999975,16,168,5,6,10,40,34.830999999999975,6.587999999999995,0.122,0.183,17,14,1,1,169,21,1,1,6,0.5,41,5.75,6,L,0.2061005917159763,0.31371428571428567,0.122,0.183
47,3,5,0,5,30.438999999999975,18,136,46,43,40,48,30.987999999999975,0.183,1.0979999999999994,2.744999999999998,20,1,7,10,139,1,7,14,5,1,60,5,6,L,0.22293525179856113,0.183,0.15685714285714286,0.19607142857142856
47,3,6,0,1,18.909999999999986,20,91,80,35,15,31,23.72899999999998,0.488,10.918999999999992,0.305,20,1,17,2,109,1,52,3,3,0,19,4.75,6,L,0.217697247706422,0.488,0.20998076923076922,0.10166666666666667
47,4,7,0,5,26.77899999999998,20,127,40,48,39,51,28.486999999999977,1.4029999999999991,0.183,13.846999999999989,20,6,2,16,135,7,2,64,5,0.5,34,4.75,6,L,0.2110148148148148,0.20042857142857143,0.0915,0.216359375
47,4,8,0,10,15.859999999999987,14,77,87,86,94,88,16.34799999999999,2.1349999999999985,0.427,0.061,16,7,2,1,79,11,2,1,3,1,36,3,6,L,0.2069367088607595,0.1940909090909091,0.2135,0.061
47,5,9,0,5,19.946999999999985,20,97,40,45,2,39,22.081999999999983,0.9149999999999996,11.406999999999991,0.8539999999999996,20,2,18,8,107,2,59,8,5,0.5,36,5.25,6,L,0.20637383177570093,0.4574999999999999,0.19333898305084746,0.10675
47,5,10,0,9,36.84399999999997,15,164,68,69,16,65,42.33399999999997,1.7689999999999988,4.7579999999999965,2.0739999999999985,20,9,12,6,188,12,19,6,4,0.5,30,4.5,6,L,0.22518085106382976,0.14741666666666667,0.2504210526315789,0.34566666666666657
