Subject,Round,Phase,afterbreak,Schema,Schema_RT,Schema_OB,Schema_AS,Cho_1,Cho_2,Cho_3,Cho_4,RT_1,RT_2,RT_3,RT_4,OB_1,OB_2,OB_3,OB_4,AS_1,AS_2,AS_3,AS_4,schema_payoff,AC,performance,payoff,breakR,type,dwellmean_1,dwellmean_2,dwellmean_3,dwellmean_4
1,1,1,0,6,30.133999999999975,19,139,11,3,25,4,30.804999999999975,7.014999999999994,1.1589999999999994,1.2809999999999993,20,15,3,6,142,26,3,6,6,0.5,41,5.75,6,L,0.21693661971830983,0.26980769230769225,0.38633333333333325,0.2135
1,1,2,0,9,13.724999999999989,19,67,71,38,13,67,14.456999999999988,7.685999999999994,0.427,0.122,20,15,3,2,71,33,3,2,4,0,19,4.75,6,L,0.20361971830985914,0.2329090909090909,0.14233333333333334,0.061
1,2,3,0,3,21.837999999999983,15,101,31,35,28,14,25.00999999999998,1.0979999999999994,1.8299999999999987,2.1959999999999984,20,5,6,4,116,7,8,7,5,0.5,36,5.25,6,L,0.21560344827586206,0.15685714285714286,0.22875,0.3137142857142857
1,2,4,0,6,11.223999999999991,15,58,6,105,3,7,12.99299999999999,9.271999999999993,0.6709999999999998,0.8539999999999996,20,15,5,3,70,35,6,3,6,0.5,38,5,6,L,0.1856142857142857,0.26491428571428566,0.11183333333333333,0.2846666666666667
1,3,5,0,10,10.857999999999992,12,64,89,85,54,53,12.13899999999999,0.122,8.051999999999994,1.2199999999999993,20,1,9,4,74,1,31,5,3,0,14,3.5,6,L,0.16404054054054054,0.122,0.2597419354838709,0.244
1,3,6,0,1,16.34799999999999,19,72,83,48,16,73,18.726999999999986,5.306999999999996,13.846999999999989,4.6969999999999965,20,15,17,13,81,27,64,23,3,0,17,4.25,6,L,0.2311975308641975,0.19655555555555554,0.21635937499999996,0.20421739130434782
1,4,7,0,7,24.82699999999998,13,133,14,15,23,120,24.88799999999998,5.245999999999996,0.366,10.125999999999992,14,8,3,11,134,18,3,40,6,0.5,38,5,6,L,0.18573134328358207,0.2914444444444444,0.122,0.25315
1,4,8,0,6,48.61699999999996,20,214,11,6,4,93,49.95899999999996,3.2329999999999974,5.550999999999996,1.463999999999999,20,7,9,4,218,8,15,4,6,0.5,39,5.25,6,L,0.22916972477064218,0.4041249999999999,0.37006666666666654,0.3659999999999999
1,5,9,0,5,19.885999999999985,15,83,37,41,39,45,22.447999999999983,2.0129999999999986,1.646999999999999,1.524999999999999,20,9,6,6,95,13,7,6,5,1,60,5,6,L,0.23629473684210525,0.15484615384615386,0.2352857142857143,0.25416666666666665
1,5,10,0,3,6.953999999999994,15,36,25,26,35,32,13.602999999999989,0.6709999999999998,1.646999999999999,2.744999999999998,20,3,7,11,70,4,7,12,5,1,60,5,6,L,0.19432857142857143,0.16775,0.2352857142857143,0.22874999999999998
3,1,1,0,8,23.48499999999998,20,100,119,120,116,84,23.97299999999998,0.061,1.3419999999999992,9.820999999999993,20,1,5,15,102,1,6,39,2,0.5,15,2.25,6,L,0.23502941176470585,0.061,0.22366666666666662,0.25182051282051277
3,1,2,0,4,27.266999999999978,16,125,106,101,102,52,27.510999999999978,0.061,2.0129999999999986,0.6709999999999998,17,1,7,2,126,1,11,2,2,0.5,16,2.5,6,L,0.21834126984126984,0.061,0.183,0.3354999999999999
3,2,3,0,1,9.881999999999993,15,48,33,75,82,76,21.715999999999983,1.1589999999999994,0.6709999999999998,1.2809999999999993,20,5,4,6,92,5,5,6,3,0.5,23,3.5,6,L,0.23604347826086955,0.2318,0.13419999999999999,0.2135
3,2,4,0,5,14.334999999999988,19,73,47,40,68,48,20.556999999999984,13.05399999999999,0.7929999999999997,0.488,20,18,6,4,97,62,6,4,5,0.5,34,4.75,6,L,0.2119278350515464,0.21054838709677418,0.13216666666666665,0.122
3,3,5,0,3,24.03399999999998,19,121,29,30,26,21,24.64399999999998,0.244,0.305,3.842999999999997,20,1,2,9,128,1,2,13,5,0.5,36,5.25,6,L,0.19253125,0.244,0.1525,0.29561538461538456
3,3,6,0,1,26.10799999999998,14,114,79,82,74,81,26.16899999999998,1.2199999999999993,2.500999999999998,6.282999999999995,15,8,9,12,115,10,13,28,3,1,36,3,6,L,0.2275565217391304,0.122,0.19238461538461538,0.22439285714285712
3,4,7,0,5,13.05399999999999,15,59,41,47,108,13,15.554999999999987,5.916999999999995,5.855999999999995,1.2199999999999993,20,11,14,6,68,24,24,8,5,0,18,4.5,6,L,0.22874999999999998,0.24654166666666666,0.24399999999999994,0.1525
3,4,8,0,2,37.45399999999997,18,169,49,51,50,32,37.69799999999997,0.9759999999999995,2.8669999999999978,19.885999999999985,19,5,8,17,170,5,12,87,4,0.5,29,4.25,6,L,0.22175294117647057,0.19519999999999998,0.2389166666666666,0.22857471264367815
3,5,9,0,9,38.67399999999997,15,154,63,65,61,19,39.52799999999997,0.9149999999999996,0.9759999999999995,1.3419999999999992,19,6,6,3,158,6,6,4,4,0.5,30,4.5,6,L,0.2501772151898734,0.15249999999999997,0.16266666666666665,0.33549999999999985
3,5,10,0,10,16.22599999999999,16,82,89,88,93,30,19.763999999999985,0.9759999999999995,0.9149999999999996,1.585999999999999,20,5,5,7,93,7,5,8,3,0.5,23,3.5,6,L,0.21251612903225806,0.13942857142857143,0.183,0.19824999999999998
4,1,1,0,2,28.303999999999977,16,123,56,52,5,46,29.157999999999976,3.4159999999999973,6.099999999999995,5.489999999999996,20,9,12,9,127,13,25,19,4,0,19,4.75,6,L,0.22959055118110233,0.26276923076923075,0.24399999999999997,0.2889473684210526
4,1,2,0,3,26.47399999999998,20,111,30,29,23,80,27.449999999999978,9.698999999999993,6.099999999999995,2.1959999999999984,20,17,13,7,119,42,26,7,5,0,19,4.75,6,L,0.23067226890756298,0.23092857142857143,0.23461538461538456,0.31371428571428567
4,2,3,0,4,8.478999999999994,11,46,101,102,103,104,8.844999999999994,0.061,0.427,0.6099999999999999,13,1,2,4,48,1,3,4,2,1,24,2,6,L,0.18427083333333333,0.061,0.14233333333333334,0.1525
4,2,4,0,8,16.04299999999999,18,78,110,111,13,19,17.445999999999987,0.122,16.652999999999988,4.391999999999997,20,1,17,14,85,1,61,21,2,0,16,4,6,L,0.2052470588235294,0.122,0.27299999999999996,0.20914285714285713
4,3,5,0,10,15.493999999999987,15,72,92,86,94,37,17.140999999999988,1.2809999999999993,0.183,2.3179999999999983,19,6,1,4,77,6,1,7,3,0.5,23,3.5,6,L,0.2226103896103896,0.21349999999999997,0.183,0.33114285714285707
4,3,6,0,2,20.007999999999985,16,98,49,56,77,13,22.630999999999982,0.6099999999999999,8.417999999999994,1.7689999999999988,20,4,10,7,109,4,28,7,4,0,17,4.25,6,L,0.20762385321100915,0.1525,0.3006428571428571,0.25271428571428567
4,4,7,0,6,14.456999999999988,15,55,2,84,77,48,15.615999999999987,12.19999999999999,4.6969999999999965,0.8539999999999996,19,14,12,3,59,52,17,4,6,0,17,4.25,6,L,0.26467796610169486,0.23461538461538461,0.2762941176470588,0.2135
4,4,8,0,10,12.32199999999999,19,69,91,22,14,102,14.334999999999988,6.648999999999995,9.637999999999993,6.953999999999994,20,18,15,15,78,37,32,30,3,0,17,4.25,6,L,0.18378205128205127,0.1797027027027027,0.30118749999999994,0.23179999999999998
4,5,9,0,3,14.517999999999988,15,69,26,32,33,100,14.883999999999988,3.1109999999999975,1.2199999999999993,1.8909999999999987,18,8,5,6,72,13,5,8,5,0.5,32,4.25,6,L,0.2067222222222222,0.2393076923076923,0.244,0.236375
4,5,10,0,5,17.933999999999987,20,87,2,9,52,43,60.81699999999995,0.5489999999999999,0.366,1.8299999999999987,20,4,3,7,249,4,3,8,5,0,21,5.25,6,L,0.2442449799196787,0.13724999999999998,0.122,0.22874999999999995
5,1,1,0,8,17.628999999999987,13,69,116,117,119,111,18.055999999999987,0.305,0.5489999999999999,0.427,15,3,4,2,71,3,4,2,2,1,24,2,6,L,0.25430985915492954,0.10166666666666667,0.13724999999999998,0.2135
5,1,2,0,2,35.135999999999974,14,151,58,1,3,60,37.39299999999997,3.537999999999997,4.879999999999996,0.061,20,12,10,1,162,15,19,1,4,0,20,5,6,L,0.23082098765432096,0.23586666666666667,0.25684210526315787,0.061
5,2,3,0,10,25.80299999999998,16,120,89,92,91,94,26.16899999999998,2.1349999999999985,0.488,1.4029999999999991,17,4,5,6,121,5,5,8,3,1,36,3,6,L,0.21627272727272726,0.42699999999999977,0.09759999999999999,0.175375
5,2,4,0,9,29.279999999999976,14,135,70,72,62,2,32.39099999999998,1.3419999999999992,2.9889999999999977,2.805999999999998,20,5,10,7,145,5,15,9,4,0.5,30,4.5,6,L,0.22338620689655173,0.26839999999999997,0.19926666666666665,0.3117777777777777
5,3,5,0,2,17.445999999999987,20,75,52,49,58,45,20.861999999999984,1.585999999999999,0.366,2.439999999999998,20,7,3,6,88,7,3,9,4,0.5,29,4.25,6,L,0.2370681818181818,0.22657142857142856,0.122,0.2711111111111111
5,3,6,0,10,30.011999999999976,16,138,85,91,17,36,30.072999999999976,0.244,6.099999999999995,1.4029999999999991,17,2,12,4,139,2,30,5,3,0,17,4.25,6,L,0.2163525179856115,0.122,0.20333333333333334,0.2806
5,4,7,0,1,18.848999999999986,16,92,81,30,73,26,21.532999999999983,11.284999999999991,1.2809999999999993,3.781999999999997,20,18,6,13,108,56,6,18,3,0,16,4,6,L,0.19937962962962963,0.20151785714285714,0.21349999999999997,0.21011111111111108
5,4,8,0,4,27.815999999999978,16,115,103,42,108,39,28.120999999999977,4.6969999999999965,4.269999999999997,5.489999999999996,18,10,10,11,117,17,17,26,2,0,14,3.5,6,L,0.24035042735042733,0.27629411764705875,0.2511764705882353,0.21115384615384614
5,5,9,0,9,11.95599999999999,12,56,72,67,66,70,12.01699999999999,0.244,5.916999999999995,3.903999999999997,13,2,9,8,57,2,23,16,4,1,48,4,6,L,0.21082456140350875,0.122,0.2572608695652174,0.24399999999999997
5,5,10,0,6,15.066999999999988,15,73,8,11,38,40,15.432999999999987,2.0739999999999985,13.35899999999999,13.35899999999999,17,7,16,15,75,9,55,60,6,0,22,5.5,6,L,0.2057733333333333,0.2304444444444444,0.24289090909090905,0.22265
6,1,1,0,4,12.56599999999999,15,57,107,101,103,106,12.62699999999999,0.061,0.305,2.805999999999998,16,1,1,8,58,1,1,16,2,1,24,2,6,L,0.21770689655172412,0.061,0.305,0.17537499999999998
6,1,2,0,8,18.909999999999986,16,91,118,115,74,45,19.458999999999985,3.476999999999997,2.1959999999999984,0.427,19,10,9,3,94,12,14,3,2,0,12,3,6,L,0.20701063829787233,0.28974999999999995,0.15685714285714286,0.14233333333333334
6,2,3,0,2,28.791999999999977,15,133,49,29,51,55,32.87899999999998,0.183,0.7319999999999998,0.122,20,1,4,1,150,1,4,1,4,0.5,29,4.25,6,L,0.21919333333333332,0.183,0.183,0.122
6,2,4,0,6,14.029999999999989,15,76,3,82,41,42,14.761999999999988,9.942999999999993,0.6099999999999999,3.1719999999999975,17,13,3,6,78,35,3,10,6,0,19,4.75,6,L,0.18925641025641024,0.2840857142857143,0.20333333333333334,0.3172
6,3,5,0,5,17.201999999999988,16,89,46,41,42,72,17.323999999999987,3.842999999999997,5.245999999999996,6.038999999999995,18,9,11,10,91,11,26,22,5,0.5,34,4.75,6,L,0.19037362637362637,0.3493636363636363,0.20176923076923076,0.27449999999999997
6,3,6,0,7,32.32999999999998,19,132,14,23,19,75,32.39099999999998,0.122,6.282999999999995,0.8539999999999996,20,2,12,3,133,2,25,3,6,0.5,39,5.25,6,L,0.24354135338345861,0.061,0.25132,0.2846666666666666
6,4,7,0,1,15.493999999999987,15,65,73,79,76,61,18.238999999999987,0.061,3.903999999999997,10.247999999999992,20,1,12,13,74,1,18,48,3,0.5,22,3.25,6,L,0.24647297297297294,0.061,0.21688888888888885,0.21349999999999997
6,4,8,0,6,12.44399999999999,18,69,11,10,1,60,14.212999999999989,3.842999999999997,2.1349999999999985,0.5489999999999999,20,11,10,2,74,16,12,2,6,0.5,40,5.5,6,L,0.19206756756756757,0.24018749999999997,0.17791666666666667,0.27449999999999997
6,5,9,0,8,21.532999999999983,16,96,111,110,59,24,21.959999999999983,1.463999999999999,13.29799999999999,0.7929999999999997,20,5,14,3,100,5,52,4,2,0,14,3.5,6,L,0.2196,0.2928,0.2557307692307692,0.19824999999999998
6,5,10,0,5,13.724999999999989,15,74,38,43,62,63,13.785999999999989,3.476999999999997,17.567999999999987,8.417999999999994,16,10,12,11,75,13,67,36,5,0,18,4.5,6,L,0.18381333333333333,0.2674615384615384,0.26220895522388055,0.2338333333333333
7,1,1,0,4,12.80999999999999,16,68,105,107,11,101,12.99299999999999,0.122,3.1719999999999975,2.622999999999998,18,1,8,8,70,1,14,12,2,0.5,18,3,6,L,0.1856142857142857,0.122,0.22657142857142856,0.21858333333333332
7,1,2,0,3,16.04299999999999,18,75,25,31,32,13,17.018999999999988,3.1719999999999975,3.2939999999999974,4.147999999999997,20,10,9,11,80,12,12,19,5,0.5,36,5.25,6,L,0.2127375,0.2643333333333333,0.27449999999999997,0.2183157894736842
7,2,3,0,9,10.308999999999992,12,49,15,67,61,69,16.835999999999988,1.8299999999999987,0.061,4.7579999999999965,20,5,1,9,82,5,1,19,4,0.5,30,4.5,6,L,0.2053170731707317,0.36599999999999994,0.061,0.25042105263157893
7,2,4,0,2,29.279999999999976,20,147,52,51,46,38,31.658999999999974,1.0979999999999994,12.74899999999999,1.463999999999999,20,6,17,9,157,6,60,11,4,0,18,4.5,6,L,0.20164968152866242,0.18299999999999997,0.2124833333333333,0.1330909090909091
7,3,5,0,6,15.432999999999987,16,74,6,2,8,48,15.554999999999987,5.611999999999996,1.7689999999999988,0.5489999999999999,18,14,9,3,76,25,10,3,6,0.5,41,5.75,6,L,0.20467105263157895,0.22447999999999999,0.1769,0.183
7,3,6,0,7,18.238999999999987,16,98,15,24,19,83,18.299999999999986,2.805999999999998,3.537999999999997,8.051999999999994,17,6,9,12,99,7,16,42,6,0.5,39,5.25,6,L,0.18484848484848485,0.40085714285714275,0.221125,0.1917142857142857
7,4,7,0,10,12.87099999999999,14,63,86,106,25,29,13.968999999999989,6.953999999999994,10.552999999999992,1.3419999999999992,20,13,14,5,69,30,52,5,3,0,15,3.75,6,L,0.20244927536231883,0.23179999999999998,0.20294230769230767,0.2683999999999999
7,4,8,0,8,19.458999999999985,13,86,116,53,51,119,19.946999999999985,4.147999999999997,2.3179999999999983,5.855999999999995,17,10,8,13,90,19,9,27,2,0,12,3,6,L,0.22163333333333332,0.21831578947368419,0.25755555555555554,0.21688888888888888
7,5,9,0,7,30.499999999999975,17,134,20,16,26,104,30.560999999999975,4.940999999999996,8.295999999999994,1.8909999999999987,18,13,16,6,135,21,39,6,6,0,19,4.75,6,L,0.22637777777777776,0.23528571428571426,0.2127179487179487,0.3151666666666666
7,5,10,0,5,13.602999999999989,14,70,4,64,3,39,56.241999999999955,0.366,4.086999999999997,0.305,20,2,13,2,256,2,22,2,5,0,21,5.25,6,L,0.2196953125,0.183,0.18577272727272726,0.1525
8,1,1,0,8,9.942999999999993,12,49,117,114,113,88,10.430999999999992,0.8539999999999996,0.6709999999999998,8.417999999999994,14,3,4,7,51,4,5,34,2,0.5,15,2.25,6,L,0.20452941176470588,0.21349999999999997,0.13419999999999999,0.24758823529411764
8,1,2,0,6,27.205999999999978,20,135,6,12,65,80,30.377999999999975,2.439999999999998,3.903999999999997,1.7689999999999988,20,10,11,3,146,15,15,3,6,0,19,4.75,6,L,0.2080684931506849,0.16266666666666665,0.26026666666666665,0.5896666666666665
8,2,3,0,5,11.95599999999999,11,65,48,38,46,47,15.554999999999987,1.4029999999999991,0.5489999999999999,0.122,19,8,2,1,80,12,2,1,5,1,60,5,6,L,0.19443749999999999,0.11691666666666667,0.27449999999999997,0.122
8,2,4,0,7,10.918999999999992,17,55,24,15,83,32,15.37199999999999,5.672999999999996,0.5489999999999999,3.4159999999999973,20,12,1,10,67,30,1,12,6,0,20,5,6,L,0.2294328358208955,0.1891,0.5489999999999999,0.2846666666666666
8,3,6,0,1,14.578999999999988,16,67,25,82,83,73,25.19299999999998,0.5489999999999999,3.720999999999997,0.427,20,4,10,4,111,4,17,5,3,0.5,23,3.5,6,L,0.22696396396396393,0.13724999999999998,0.21888235294117644,0.0854
8,4,7,0,7,13.968999999999989,15,67,14,15,23,65,14.578999999999988,4.025999999999997,2.9889999999999977,1.7079999999999989,20,11,8,7,72,21,12,8,6,0.5,40,5.5,6,L,0.20248611111111112,0.1917142857142857,0.2490833333333333,0.21349999999999997
8,4,8,0,6,14.761999999999988,13,75,8,4,115,35,16.28699999999999,0.5489999999999999,11.101999999999991,2.3789999999999982,19,2,12,6,81,3,50,9,6,0,19,4.75,6,L,0.20107407407407407,0.183,0.22203999999999996,0.2643333333333333
8,5,9,0,5,14.151999999999989,15,64,40,37,41,49,14.944999999999988,6.526999999999995,1.4029999999999991,13.48099999999999,19,14,5,11,68,28,8,50,5,0.5,34,4.75,6,L,0.21977941176470586,0.23310714285714285,0.175375,0.26961999999999997
8,5,10,0,7,17.262999999999987,15,73,17,20,23,22,17.323999999999987,4.879999999999996,1.7689999999999988,2.3789999999999982,16,14,9,7,74,18,10,8,6,1,72,6,6,L,0.2341081081081081,0.271111111111111,0.1769,0.29737499999999994
9,1,1,0,3,19.275999999999986,20,102,71,4,8,31,31.780999999999977,2.8669999999999978,0.061,0.061,20,11,1,1,147,13,1,1,5,0,21,5.25,6,L,0.21619727891156462,0.22053846153846154,0.061,0.061
9,1,2,0,7,5.184999999999996,4,29,13,16,22,23,8.905999999999993,0.244,0.061,0.122,8,3,1,1,49,3,1,1,6,1,72,6,6,L,0.18175510204081632,0.08133333333333333,0.061,0.122
9,2,4,0,6,21.959999999999983,20,102,2,6,34,36,22.630999999999982,1.646999999999999,13.17599999999999,2.9279999999999977,20,6,18,13,107,9,55,17,6,0,22,5.5,6,L,0.21150467289719624,0.183,0.23956363636363634,0.17223529411764704
9,3,5,0,4,9.027999999999993,12,41,101,98,35,27,9.454999999999993,0.305,14.151999999999989,0.427,14,2,13,2,43,2,66,2,2,0,14,3.5,6,L,0.21988372093023256,0.1525,0.2144242424242424,0.2135
9,3,6,0,8,12.32199999999999,15,64,117,111,44,116,13.35899999999999,0.061,5.672999999999996,2.3179999999999983,19,1,10,7,68,1,25,8,2,0.5,17,2.75,6,L,0.19645588235294117,0.061,0.22691999999999998,0.2897499999999999
9,4,7,0,3,29.279999999999976,15,126,27,25,21,15,31.414999999999974,2.2569999999999983,5.001999999999996,1.8909999999999987,20,6,10,5,133,9,23,5,5,0,22,5.5,6,L,0.23620300751879697,0.25077777777777777,0.2174782608695652,0.3781999999999999
9,4,8,0,5,21.532999999999983,16,94,46,41,39,2,22.752999999999982,0.6709999999999998,2.2569999999999983,1.463999999999999,18,5,8,5,96,6,8,6,5,0.5,36,5.25,6,L,0.23701041666666664,0.11183333333333333,0.28212499999999996,0.24399999999999997
9,5,9,0,8,23.48499999999998,15,123,119,113,111,109,24.27799999999998,0.061,0.061,0.7929999999999997,18,1,1,4,126,1,1,5,2,1,24,2,6,L,0.19268253968253968,0.061,0.061,0.1586
9,5,10,0,2,10.125999999999992,15,51,52,55,60,15,13.11499999999999,6.8319999999999945,0.061,0.7929999999999997,20,14,1,5,67,32,1,5,4,0.5,30,4.5,6,L,0.1957462686567164,0.2135,0.061,0.1586
10,1,1,0,1,18.787999999999986,20,91,79,81,84,77,19.214999999999986,0.488,0.183,8.783999999999994,20,4,2,16,92,4,2,42,3,1,36,3,6,L,0.2088586956521739,0.122,0.0915,0.20914285714285713
10,1,2,0,8,20.373999999999985,16,95,115,120,109,110,21.532999999999983,0.061,3.903999999999997,2.3789999999999982,19,1,13,7,98,1,21,10,2,1,24,2,6,L,0.21972448979591835,0.061,0.1859047619047619,0.23789999999999997
10,2,3,0,6,19.153999999999986,15,97,7,4,9,41,21.654999999999983,4.452999999999997,0.8539999999999996,4.208999999999997,20,11,6,10,108,19,8,20,6,0.5,41,5.75,6,L,0.20050925925925925,0.23436842105263156,0.10675,0.21045
10,2,4,0,10,30.255999999999975,13,137,95,89,90,50,30.499999999999975,3.1109999999999975,0.7319999999999998,2.9279999999999977,15,9,4,10,139,10,5,14,3,0.5,22,3.25,6,L,0.21942446043165464,0.3111,0.1464,0.20914285714285713
10,3,5,0,8,11.223999999999991,11,55,114,115,118,116,13.41999999999999,0.244,3.4159999999999973,1.1589999999999994,15,2,9,7,59,2,15,8,2,1,24,2,6,L,0.22745762711864403,0.122,0.22773333333333332,0.144875
10,3,6,0,5,23.78999999999998,20,103,76,84,13,40,57.94999999999996,3.2329999999999974,4.391999999999997,0.6709999999999998,20,12,14,4,258,13,19,5,5,0,17,4.25,6,L,0.22461240310077515,0.24869230769230766,0.2311578947368421,0.13419999999999999
10,4,7,0,6,6.465999999999995,9,35,2,11,5,8,7.014999999999995,0.244,0.7319999999999998,1.0979999999999994,11,3,4,7,37,3,4,9,6,1,72,6,6,L,0.1895945945945946,0.08133333333333333,0.183,0.122
10,4,8,0,7,48.37299999999996,14,202,22,18,21,14,51.42299999999996,0.6099999999999999,1.7079999999999989,18.360999999999986,20,2,3,17,214,2,4,70,6,1,72,6,6,L,0.24029439252336446,0.305,0.4269999999999998,0.2623
10,5,9,0,6,3.1109999999999975,4,15,4,1,11,8,3.7209999999999974,0.9149999999999996,0.061,0.061,7,3,1,1,20,4,1,1,6,1,72,6,6,L,0.18605,0.22875,0.061,0.061
11,1,1,0,6,6.8319999999999945,4,30,5,6,10,8,8.234999999999994,0.183,0.061,0.061,6,3,1,1,35,3,1,1,6,1,72,6,6,L,0.23528571428571426,0.061,0.061,0.061
11,1,2,0,4,38.18599999999997,18,168,101,97,102,49,40.07699999999997,0.061,1.0979999999999994,5.245999999999996,20,1,5,9,175,1,6,22,2,0.5,16,2.5,6,L,0.22901142857142856,0.061,0.18299999999999997,0.23845454545454545
11,2,3,0,3,14.395999999999988,18,70,30,36,62,31,17.079999999999988,5.428999999999996,3.903999999999997,1.463999999999999,20,15,8,5,84,21,12,5,5,0.5,34,4.75,6,L,0.2033333333333333,0.2585238095238095,0.32533333333333325,0.2928
11,2,4,0,6,19.824999999999985,16,106,3,10,4,7,22.325999999999983,0.122,1.3419999999999992,1.1589999999999994,20,2,4,4,119,2,5,5,6,1,72,6,6,L,0.18761344537815125,0.061,0.26839999999999997,0.2318
11,3,5,0,6,5.367999999999996,4,25,1,4,6,5,5.7949999999999955,0.183,0.305,0.366,7,2,2,1,28,2,2,3,6,1,72,6,6,L,0.2069642857142857,0.0915,0.1525,0.122
11,3,6,0,2,12.32199999999999,17,61,54,59,55,107,15.798999999999987,2.1349999999999985,1.7689999999999988,9.637999999999993,20,8,7,15,78,12,8,35,4,0.5,26,3.5,6,L,0.20255128205128203,0.17791666666666667,0.221125,0.27537142857142854
11,4,8,0,7,14.944999999999988,11,60,17,23,14,18,18.787999999999986,0.305,1.3419999999999992,1.4029999999999991,20,2,5,2,78,2,5,3,6,1,72,6,6,L,0.24087179487179486,0.1525,0.26839999999999997,0.46766666666666645
11,5,9,0,6,10.918999999999992,14,57,2,5,10,44,11.406999999999991,2.439999999999998,1.2199999999999993,22.996999999999982,17,6,4,16,61,7,4,102,6,0.5,41,5.75,6,L,0.187,0.34857142857142853,0.30499999999999994,0.22546078431372546
11,5,10,0,7,11.284999999999991,4,52,20,19,22,24,12.01699999999999,2.500999999999998,0.061,0.061,8,3,1,1,57,10,1,1,6,1,72,6,6,L,0.21082456140350875,0.2501,0.061,0.061
13,1,1,0,3,30.499999999999975,16,138,14,35,18,22,33.915999999999976,0.6099999999999999,2.8669999999999978,2.561999999999998,20,4,6,9,151,4,7,11,5,0.5,41,5.75,6,L,0.22460927152317878,0.1525,0.4095714285714285,0.2329090909090909
13,1,2,0,9,32.69599999999998,16,158,71,42,61,62,36.35599999999997,1.7689999999999988,3.2329999999999974,0.366,20,7,9,2,167,10,15,2,4,0.5,29,4.25,6,L,0.21770059880239517,0.1769,0.21553333333333333,0.183
13,2,3,0,6,7.380999999999994,12,37,1,10,5,12,7.685999999999994,1.463999999999999,2.683999999999998,8.234999999999994,15,4,5,9,40,6,6,35,6,1,72,6,6,L,0.19215,0.244,0.4473333333333332,0.23528571428571426
13,2,4,0,2,20.983999999999984,18,82,55,51,49,59,21.715999999999983,2.561999999999998,0.244,4.574999999999997,20,11,2,11,87,12,2,23,4,1,48,4,6,L,0.2496091954022988,0.2135,0.122,0.19891304347826086
13,3,6,0,8,21.654999999999983,16,110,120,109,114,28,21.715999999999983,2.439999999999998,0.7319999999999998,4.7579999999999965,17,6,5,11,111,7,5,24,2,0.5,17,2.75,6,L,0.19563963963963962,0.34857142857142853,0.1464,0.19824999999999998
13,4,7,0,5,20.617999999999984,13,95,40,48,70,45,20.678999999999984,4.330999999999997,0.305,7.9299999999999935,14,12,2,13,96,16,3,25,5,0.5,34,4.75,6,L,0.21540625,0.27068749999999997,0.10166666666666667,0.3171999999999999
13,4,8,0,3,20.068999999999985,14,87,25,27,31,32,24.33899999999998,0.305,2.9279999999999977,7.807999999999994,20,3,7,11,106,3,10,25,5,1,60,5,6,L,0.2296132075471698,0.10166666666666667,0.29279999999999995,0.31231999999999993
13,5,9,0,7,13.11499999999999,20,77,17,21,18,22,13.54199999999999,3.0499999999999976,2.0739999999999985,1.9519999999999986,20,10,7,5,79,12,9,5,6,1,72,6,6,L,0.17141772151898735,0.2541666666666666,0.23044444444444442,0.39039999999999986
14,1,1,0,4,12.26099999999999,20,66,101,104,26,50,12.50499999999999,16.530999999999988,2.2569999999999983,0.9149999999999996,20,19,11,4,68,72,11,4,2,0,13,3.25,6,L,0.18389705882352939,0.2295972222222222,0.2051818181818182,0.22874999999999998
14,1,2,0,10,22.264999999999983,19,100,96,89,86,69,22.996999999999982,1.3419999999999992,3.903999999999997,0.7929999999999997,20,4,10,3,104,4,16,3,3,0.5,22,3.25,6,L,0.221125,0.3354999999999999,0.24399999999999997,0.2643333333333333
14,2,3,0,8,13.11499999999999,17,63,109,116,19,111,14.395999999999988,3.9649999999999967,11.284999999999991,0.9149999999999996,20,9,16,2,67,13,45,2,2,0.5,18,3,6,L,0.21486567164179105,0.30499999999999994,0.25077777777777777,0.45749999999999996
14,2,4,0,5,21.410999999999984,16,83,46,47,37,4,21.898999999999983,2.8669999999999978,3.3549999999999973,1.463999999999999,18,8,7,4,85,11,7,8,5,0.5,36,5.25,6,L,0.257635294117647,0.2606363636363636,0.47928571428571415,0.183
14,3,5,0,1,25.80299999999998,20,127,74,79,7,81,26.16899999999998,2.3179999999999983,6.160999999999995,0.7929999999999997,20,5,16,6,129,7,39,7,3,0.5,24,3.75,6,L,0.20286046511627906,0.33114285714285707,0.15797435897435896,0.11328571428571428
14,3,6,0,10,12.74899999999999,15,65,95,58,60,85,13.11499999999999,11.162999999999991,1.9519999999999986,1.2809999999999993,18,13,6,6,68,47,6,7,3,0,14,3.5,6,L,0.1928676470588235,0.23751063829787233,0.3253333333333333,0.183
14,4,7,0,7,18.238999999999987,15,87,16,18,20,41,19.885999999999985,0.5489999999999999,0.061,5.184999999999996,20,3,1,9,99,3,1,20,6,0.5,41,5.75,6,L,0.20086868686868686,0.183,0.061,0.25925
14,4,8,0,8,14.395999999999988,18,66,119,113,116,54,15.371999999999987,4.635999999999997,0.8539999999999996,6.404999999999995,20,12,3,15,68,17,3,28,2,0.5,16,2.5,6,L,0.22605882352941176,0.27270588235294113,0.2846666666666666,0.22874999999999998
14,5,9,0,1,22.386999999999983,16,101,83,75,77,81,22.691999999999982,0.244,0.7929999999999997,0.5489999999999999,20,2,3,2,105,2,4,2,3,1,36,3,6,L,0.2161142857142857,0.122,0.19824999999999998,0.27449999999999997
14,5,10,0,2,33.366999999999976,19,147,49,57,106,103,34.647999999999975,5.062999999999996,4.269999999999997,5.672999999999996,20,13,14,12,153,23,21,16,4,0,12,3,6,L,0.22645751633986927,0.22013043478260869,0.2033333333333333,0.35456249999999995
15,1,1,0,8,25.13199999999998,15,116,111,118,114,44,25.37599999999998,1.0369999999999995,1.524999999999999,7.8689999999999936,16,3,4,12,117,4,5,34,2,0.5,17,2.75,6,L,0.21688888888888885,0.25925,0.305,0.23144117647058823
15,1,2,0,9,27.632999999999978,18,124,62,68,1,7,29.767999999999976,0.6099999999999999,3.3549999999999973,0.305,20,4,8,1,138,6,10,1,4,0,20,5,6,L,0.2157101449275362,0.10166666666666667,0.33549999999999996,0.305
15,2,3,0,10,24.82699999999998,14,102,93,86,14,13,25.43699999999998,1.646999999999999,7.502999999999994,19.580999999999985,17,4,12,13,105,5,39,78,3,0,18,4.5,6,L,0.24225714285714284,0.3293999999999999,0.19238461538461538,0.2510384615384615
15,2,4,0,3,29.584999999999976,20,133,27,26,4,12,30.682999999999975,0.366,3.1719999999999975,1.8299999999999987,20,3,10,5,139,3,16,5,5,0,22,5.5,6,L,0.22074100719424458,0.122,0.19824999999999998,0.3659999999999999
15,3,5,0,2,13.11499999999999,12,64,60,52,56,103,13.29799999999999,1.8299999999999987,5.184999999999996,3.0499999999999976,14,6,9,8,66,6,27,14,4,0.5,26,3.5,6,L,0.20148484848484846,0.30499999999999994,0.19203703703703703,0.21785714285714286
15,3,6,0,8,12.19999999999999,18,57,118,119,64,116,13.35899999999999,4.6969999999999965,11.528999999999991,0.7319999999999998,20,13,17,4,63,24,51,5,2,0.5,16,2.5,6,L,0.21204761904761904,0.19570833333333332,0.22605882352941173,0.1464
15,4,7,0,5,12.80999999999999,16,58,41,37,2,47,12.87099999999999,2.622999999999998,0.6099999999999999,12.26099999999999,17,8,2,11,59,10,3,55,5,0.5,36,5.25,6,L,0.21815254237288134,0.2623,0.20333333333333334,0.2229272727272727
15,4,8,0,3,29.767999999999976,20,154,33,26,59,27,30.194999999999975,0.366,7.258999999999994,0.8539999999999996,20,3,11,5,156,3,23,5,5,0.5,34,4.75,6,L,0.1935576923076923,0.122,0.31560869565217387,0.1708
15,5,9,0,1,19.031999999999986,16,87,74,13,103,55,19.885999999999985,16.957999999999988,2.0739999999999985,0.427,20,15,9,3,93,70,11,3,3,0,15,3.75,6,L,0.2138279569892473,0.24225714285714284,0.18854545454545454,0.14233333333333334
15,5,10,0,5,23.240999999999982,18,108,45,44,48,38,25.19299999999998,2.0739999999999985,0.9759999999999995,5.611999999999996,20,6,5,12,114,8,5,22,5,1,60,5,6,L,0.22099122807017543,0.25925,0.19519999999999998,0.25509090909090903
16,1,1,0,3,10.247999999999992,17,45,117,15,63,69,38.55199999999997,1.2809999999999993,0.6099999999999999,0.061,20,5,2,1,150,5,2,1,5,0,16,4,6,L,0.2570133333333333,0.2562,0.305,0.061
16,2,3,0,4,14.761999999999988,16,73,97,98,104,103,17.628999999999987,0.061,0.061,0.6099999999999999,20,1,1,5,83,1,1,5,2,1,24,2,6,L,0.2123975903614458,0.061,0.061,0.122
16,2,4,0,3,12.74899999999999,13,52,30,29,31,26,15.676999999999987,3.2329999999999974,0.183,1.0979999999999994,20,8,1,4,72,9,1,4,5,1,60,5,6,L,0.2177361111111111,0.35922222222222217,0.183,0.27449999999999997
16,3,5,0,10,21.227999999999984,20,123,94,85,93,61,21.593999999999983,2.9279999999999977,5.977999999999995,3.842999999999997,20,13,12,9,125,16,25,15,3,0.5,22,3.25,6,L,0.172752,0.183,0.23912,0.2562
16,3,6,0,3,6.709999999999995,4,36,30,25,27,35,7.075999999999994,0.061,1.4029999999999991,0.122,8,1,2,1,40,1,12,1,5,1,60,5,6,L,0.1769,0.061,0.11691666666666667,0.122
16,4,7,0,3,3.476999999999997,4,20,25,33,32,35,10.552999999999992,0.244,0.061,0.061,8,2,1,1,45,2,1,1,5,1,60,5,6,L,0.2345111111111111,0.122,0.061,0.061
16,4,8,0,5,47.33599999999996,14,196,38,45,44,68,49.77599999999996,1.4029999999999991,0.9149999999999996,1.8299999999999987,20,6,4,6,207,6,4,6,5,0.5,34,4.75,6,L,0.240463768115942,0.2338333333333333,0.22874999999999998,0.30499999999999994
16,5,9,0,3,4.025999999999997,4,19,26,31,28,33,7.624999999999995,0.061,0.305,0.122,8,1,2,1,33,1,2,1,5,1,60,5,6,L,0.23106060606060605,0.061,0.1525,0.122
16,5,10,0,4,62.15899999999995,16,281,103,99,107,13,62.52499999999995,2.805999999999998,2.683999999999998,2.9279999999999977,18,7,8,9,283,9,10,13,2,0.5,18,3,6,L,0.2209363957597173,0.3117777777777777,0.26839999999999997,0.22523076923076923
17,1,1,0,3,6.465999999999995,4,25,26,30,29,31,7.380999999999995,0.183,0.061,0.7929999999999997,8,2,1,1,31,2,1,6,5,1,60,5,6,L,0.23809677419354836,0.0915,0.061,0.13216666666666665
17,1,2,0,4,21.166999999999984,20,100,104,108,105,100,21.898999999999983,0.9149999999999996,0.5489999999999999,0.9149999999999996,20,6,2,5,103,6,2,6,2,1,24,2,6,L,0.21261165048543687,0.1525,0.27449999999999997,0.1525
17,2,3,0,2,25.19299999999998,18,109,55,49,4,2,26.35199999999998,0.244,2.439999999999998,31.780999999999974,20,1,6,16,114,1,9,135,4,0,20,5,6,L,0.2311578947368421,0.244,0.2711111111111111,0.2354148148148148
17,2,4,0,9,26.10799999999998,15,115,69,17,18,89,29.767999999999976,7.624999999999994,2.2569999999999983,2.683999999999998,20,15,6,11,137,32,7,17,4,0,19,4.75,6,L,0.2172846715328467,0.23828124999999997,0.3224285714285714,0.15788235294117647
17,3,5,0,5,33.854999999999976,16,158,38,46,48,37,35.318999999999974,1.2809999999999993,0.244,0.6099999999999999,20,5,1,3,165,5,2,3,5,1,60,5,6,L,0.21405454545454544,0.2562,0.122,0.20333333333333334
17,3,6,0,7,25.31499999999998,17,108,15,21,22,65,25.61999999999998,0.7319999999999998,15.981999999999987,1.524999999999999,18,3,17,6,109,3,61,7,6,0.5,40,5.5,6,L,0.235045871559633,0.244,0.26199999999999996,0.21785714285714283
17,4,7,0,6,16.04299999999999,20,83,32,2,62,3,32.32999999999998,2.1349999999999985,0.183,0.122,20,7,2,2,146,8,2,2,6,0,21,5.25,6,L,0.22143835616438354,0.266875,0.0915,0.061
17,4,8,0,8,12.80999999999999,15,72,115,38,116,118,20.190999999999985,15.249999999999988,2.3789999999999982,0.9759999999999995,20,15,10,4,102,57,14,5,2,0.5,17,2.75,6,L,0.19795098039215683,0.2675438596491228,0.16992857142857143,0.19519999999999998
17,5,9,0,4,13.968999999999989,14,64,104,108,25,100,16.652999999999988,2.3179999999999983,14.883999999999988,0.122,20,10,13,1,76,12,66,1,2,0.5,17,2.75,6,L,0.21911842105263157,0.19316666666666665,0.2255151515151515,0.122
17,5,10,0,7,17.323999999999987,14,76,13,23,42,59,17.567999999999987,4.7579999999999965,6.648999999999995,0.305,16,11,10,3,78,16,23,3,6,0,21,5.25,6,L,0.22523076923076923,0.29737499999999994,0.2890869565217391,0.10166666666666667
18,1,1,0,9,12.07799999999999,15,55,64,67,69,66,20.068999999999985,0.061,0.122,0.9759999999999995,20,1,2,4,87,1,2,4,4,1,48,4,6,L,0.23067816091954021,0.061,0.061,0.244
18,1,2,0,6,14.151999999999989,18,65,1,3,26,57,26.35199999999998,1.0369999999999995,1.8909999999999987,0.122,20,4,10,1,111,4,14,1,6,0,21,5.25,6,L,0.2374054054054054,0.2592499999999999,0.13507142857142856,0.122
18,2,3,0,7,12.26099999999999,13,54,16,18,17,20,12.93199999999999,0.6709999999999998,0.8539999999999996,1.524999999999999,19,3,3,10,60,3,3,11,6,1,72,6,6,L,0.21553333333333333,0.22366666666666665,0.2846666666666667,0.13863636363636364
18,2,4,0,2,26.35199999999998,13,119,49,51,41,2,27.510999999999978,1.585999999999999,5.123999999999996,0.427,17,5,11,3,123,5,19,3,4,0,19,4.75,6,L,0.22366666666666665,0.3172,0.26968421052631575,0.14233333333333334
18,3,5,0,6,25.25399999999998,13,115,7,39,3,50,29.523999999999976,0.183,11.406999999999991,0.427,20,1,15,2,129,1,42,2,6,0,21,5.25,6,L,0.22886821705426355,0.183,0.27159523809523806,0.2135
18,3,6,0,8,10.308999999999992,18,48,115,116,117,120,12.93199999999999,0.122,6.038999999999995,9.210999999999993,20,2,14,15,60,2,26,43,2,1,24,2,6,L,0.21553333333333333,0.061,0.23226923076923073,0.21420930232558139
18,4,7,0,4,55.204999999999956,14,268,100,97,51,104,55.936999999999955,2.0739999999999985,4.7579999999999965,0.366,17,10,12,3,271,11,20,3,2,0.5,16,2.5,6,L,0.20640959409594095,0.18854545454545452,0.2379,0.122
18,4,8,0,5,31.231999999999974,16,145,42,44,48,9,34.159999999999975,0.8539999999999996,0.122,1.2809999999999993,20,2,1,5,159,2,1,5,5,0.5,36,5.25,6,L,0.21484276729559748,0.42699999999999994,0.122,0.2562
18,5,9,0,1,11.223999999999991,15,54,75,3,5,113,13.846999999999989,15.371999999999987,11.467999999999991,0.061,20,14,14,1,65,69,41,1,3,0,17,4.25,6,L,0.21303076923076922,0.22278260869565214,0.2797073170731707,0.061
18,5,10,0,10,25.86399999999998,20,113,87,95,96,90,26.04699999999998,0.183,4.391999999999997,0.427,20,1,13,1,115,1,18,1,3,1,36,3,6,L,0.22649565217391301,0.183,0.24399999999999997,0.427
20,1,1,0,8,20.312999999999985,15,90,110,15,14,117,20.983999999999984,7.136999999999994,10.125999999999992,0.061,20,14,14,1,95,29,44,1,2,0,16,4,6,L,0.22088421052631577,0.24610344827586206,0.2301363636363636,0.061
20,1,2,0,6,49.53199999999996,18,211,9,29,1,7,51.66699999999996,4.391999999999997,1.585999999999999,0.8539999999999996,20,14,4,6,224,23,5,6,6,0.5,41,5.75,6,L,0.23065624999999998,0.1909565217391304,0.3171999999999999,0.14233333333333334
20,2,3,0,2,13.724999999999989,14,67,57,26,73,52,14.700999999999988,8.722999999999994,5.7339999999999955,0.5489999999999999,20,12,13,3,73,33,27,3,4,0,16,4,6,L,0.2013835616438356,0.2643333333333333,0.21237037037037035,0.183
20,2,4,0,5,24.27799999999998,19,116,43,40,20,48,24.76599999999998,2.0739999999999985,1.9519999999999986,0.9759999999999995,20,8,8,3,118,10,10,3,5,0.5,36,5.25,6,L,0.20988135593220336,0.2074,0.19519999999999998,0.3253333333333333
20,3,5,0,6,11.589999999999991,15,49,1,7,5,12,14.334999999999988,2.622999999999998,1.4029999999999991,3.1719999999999975,20,9,6,9,61,13,10,12,6,1,72,6,6,L,0.23499999999999996,0.20176923076923076,0.1403,0.26433333333333325
20,3,6,0,8,26.35199999999998,18,100,117,48,116,109,27.571999999999978,0.5489999999999999,2.8669999999999978,1.585999999999999,20,2,11,5,105,2,13,6,2,0.5,17,2.75,6,L,0.26259047619047615,0.27449999999999997,0.22053846153846152,0.2643333333333333
20,4,7,0,10,25.74199999999998,15,112,85,94,92,91,26.04699999999998,0.183,2.1959999999999984,7.258999999999994,17,1,9,12,114,1,11,27,3,1,36,3,6,L,0.22848245614035084,0.183,0.19963636363636364,0.2688518518518518
20,4,8,0,6,17.018999999999988,18,82,11,4,1,12,18.482999999999986,3.9649999999999967,3.1109999999999975,5.7339999999999955,20,13,10,15,91,14,13,29,6,1,72,6,6,L,0.2031098901098901,0.28321428571428564,0.23930769230769228,0.19772413793103447
20,5,10,0,2,28.364999999999977,20,131,50,52,40,41,28.852999999999977,1.646999999999999,1.524999999999999,1.1589999999999994,20,5,4,6,133,5,4,7,4,0,18,4.5,6,L,0.21693984962406013,0.3293999999999999,0.3812499999999999,0.16557142857142856
21,1,1,0,9,16.40899999999999,16,78,37,64,69,71,27.20599999999998,0.305,0.7929999999999997,2.3179999999999983,20,3,4,9,128,3,5,14,4,0.5,29,4.25,6,L,0.21254687499999997,0.10166666666666667,0.1586,0.16557142857142856
21,1,2,0,4,24.52199999999998,16,109,104,108,105,31,25.43699999999998,1.463999999999999,0.122,3.659999999999997,20,5,1,8,114,7,1,10,2,0.5,17,2.75,6,L,0.2231315789473684,0.20914285714285713,0.122,0.3659999999999999
21,2,3,0,3,19.092999999999986,16,95,26,50,35,29,31.658999999999978,2.1959999999999984,0.061,1.4029999999999991,20,8,1,6,157,11,1,7,5,0.5,34,4.75,6,L,0.2016496815286624,0.19963636363636364,0.061,0.20042857142857143
21,2,4,0,7,18.055999999999987,18,85,13,24,15,19,22.386999999999983,3.4159999999999973,1.585999999999999,0.6709999999999998,20,10,6,4,115,12,6,4,6,1,72,6,6,L,0.1946695652173913,0.2846666666666666,0.2643333333333333,0.16775
21,3,5,0,8,27.876999999999978,20,141,117,116,112,8,28.852999999999977,2.2569999999999983,6.587999999999995,1.463999999999999,20,8,15,5,144,12,34,6,2,0.5,18,3,6,L,0.20036805555555554,0.18808333333333332,0.19376470588235292,0.244
21,4,7,0,6,22.752999999999982,15,110,9,11,8,2,25.86399999999998,0.8539999999999996,5.489999999999996,4.513999999999997,20,5,13,10,127,5,27,22,6,1,72,6,6,L,0.2036535433070866,0.1708,0.2033333333333333,0.20518181818181816
21,4,8,0,7,26.83999999999998,16,133,15,13,67,24,28.486999999999977,3.1719999999999975,1.8299999999999987,0.6099999999999999,20,8,7,3,142,10,8,4,6,0.5,40,5.5,6,L,0.200612676056338,0.3171999999999999,0.22875,0.1525
21,5,9,0,7,19.153999999999986,18,73,14,23,21,66,19.214999999999986,7.319999999999994,4.635999999999997,8.600999999999994,19,15,14,16,74,31,27,35,6,0.5,40,5.5,6,L,0.25966216216216215,0.23612903225806448,0.1717037037037037,0.24574285714285712
21,5,10,0,2,21.105999999999984,14,92,52,59,55,57,22.203999999999983,2.3789999999999982,0.6709999999999998,1.1589999999999994,18,8,5,5,96,9,5,5,4,1,48,4,6,L,0.23129166666666662,0.2643333333333333,0.13419999999999999,0.23179999999999998
22,1,1,0,1,33.915999999999976,14,163,75,4,73,77,34.159999999999975,2.0129999999999986,0.305,2.2569999999999983,15,5,2,6,164,9,2,9,3,0.5,24,3.75,6,L,0.20829268292682926,0.22366666666666665,0.1525,0.25077777777777777
22,1,2,0,4,9.759999999999993,16,45,104,97,103,64,11.162999999999991,0.122,6.465999999999995,2.439999999999998,20,2,15,5,52,2,29,5,2,0.5,16,2.5,6,L,0.2146730769230769,0.061,0.22296551724137928,0.4879999999999998
22,2,3,0,2,18.116999999999987,14,84,53,52,51,50,18.909999999999986,0.061,1.463999999999999,0.122,19,1,5,1,90,1,6,1,4,1,48,4,6,L,0.2101111111111111,0.061,0.244,0.122
22,2,4,0,8,42.69999999999997,18,174,112,1,114,2,59.77999999999996,12.50499999999999,0.061,1.524999999999999,20,19,1,8,247,54,1,10,2,0,16,4,6,L,0.2420242914979757,0.23157407407407404,0.061,0.1525
22,3,5,0,10,11.101999999999991,12,48,86,87,3,10,18.482999999999986,0.244,11.89499999999999,0.7319999999999998,20,2,10,5,81,2,49,6,3,0,18,4.5,6,L,0.22818518518518516,0.122,0.2427551020408163,0.122
22,3,6,0,7,20.068999999999985,20,96,13,17,14,21,27.510999999999978,0.7929999999999997,0.9149999999999996,2.2569999999999983,20,4,5,10,127,5,7,13,6,1,72,6,6,L,0.21662204724409448,0.1586,0.1307142857142857,0.17361538461538462
22,4,7,0,3,21.898999999999983,20,103,36,26,32,95,22.447999999999983,0.427,1.0979999999999994,7.075999999999994,20,1,6,12,106,1,8,26,5,0.5,33,4.5,6,L,0.21177358490566037,0.427,0.13724999999999998,0.27215384615384614
22,4,8,0,7,7.197999999999994,4,27,19,16,15,21,7.319999999999994,0.061,0.5489999999999999,0.305,5,1,1,1,28,1,2,4,6,1,72,6,6,L,0.2614285714285714,0.061,0.27449999999999997,0.07625
22,5,9,0,1,57.82799999999995,15,235,81,3,40,100,60.08499999999995,2.744999999999998,1.8909999999999987,1.585999999999999,20,9,7,3,247,10,9,3,3,0,16,4,6,L,0.24325910931174086,0.27449999999999997,0.2101111111111111,0.5286666666666666
23,1,1,0,3,17.384999999999987,12,78,32,29,30,25,17.994999999999987,3.659999999999997,2.9279999999999977,4.086999999999997,17,8,9,8,83,14,14,16,5,1,60,5,6,L,0.21680722891566262,0.2614285714285714,0.20914285714285713,0.2554375
23,1,2,0,10,56.668999999999954,18,219,87,96,38,66,58.55999999999995,0.6099999999999999,1.9519999999999986,0.427,20,6,7,2,226,7,8,2,3,0,15,3.75,6,L,0.2591150442477876,0.08714285714285715,0.24399999999999994,0.2135
23,2,3,0,6,21.166999999999984,19,95,9,7,3,2,24.39999999999998,2.805999999999998,0.061,2.2569999999999983,20,10,1,8,105,12,1,12,6,1,72,6,6,L,0.23238095238095235,0.23383333333333334,0.061,0.18808333333333332
23,2,4,0,7,35.562999999999974,12,159,23,20,22,58,35.623999999999974,1.8299999999999987,1.0369999999999995,7.807999999999994,13,6,6,15,160,8,7,36,6,0.5,40,5.5,6,L,0.22265,0.22874999999999998,0.14814285714285713,0.21688888888888888
23,3,5,0,6,2.9279999999999977,4,21,3,5,8,12,3.4769999999999976,0.9759999999999995,0.061,0.061,6,3,1,1,23,4,1,1,6,1,72,6,6,L,0.15117391304347827,0.244,0.061,0.061
23,3,6,0,9,38.30799999999997,18,171,20,35,81,70,58.13299999999995,6.8929999999999945,0.427,1.524999999999999,20,16,1,3,237,27,1,3,4,0,18,4.5,6,L,0.2452869198312236,0.25529629629629624,0.427,0.5083333333333332
23,4,7,0,4,18.543999999999986,19,82,14,97,68,65,42.88299999999997,0.061,0.366,1.4029999999999991,20,1,3,5,185,1,3,5,2,0,16,4,6,L,0.23179999999999998,0.061,0.122,0.2805999999999999
23,4,8,0,8,8.173999999999994,16,44,3,11,73,33,50.50799999999996,10.247999999999992,1.9519999999999986,3.9649999999999967,20,19,8,14,221,44,9,21,2,0,20,5,6,L,0.22854298642533935,0.2329090909090909,0.21688888888888885,0.1888095238095238
23,5,9,0,7,18.238999999999987,14,99,17,19,21,25,18.360999999999986,1.2809999999999993,0.122,26.53499999999998,16,4,1,12,101,4,1,103,6,0.5,41,5.75,6,L,0.1817920792079208,0.3202499999999999,0.122,0.2576213592233009
23,5,10,0,2,13.17599999999999,16,66,1,12,9,51,43.61499999999997,0.183,27.08399999999998,14.639999999999988,20,1,14,12,198,1,122,70,4,0.5,40,5.5,6,L,0.22027777777777777,0.183,0.22199999999999998,0.20914285714285713
24,1,1,0,6,11.345999999999991,13,56,7,10,41,2,12.87099999999999,3.1719999999999975,6.038999999999995,4.086999999999997,20,11,13,11,63,13,33,17,6,0.5,41,5.75,6,L,0.2043015873015873,0.244,0.183,0.24041176470588235
24,1,2,0,8,20.495999999999984,20,102,112,117,115,116,20.678999999999984,3.1109999999999975,2.1349999999999985,0.183,20,8,6,1,103,14,6,1,2,1,24,2,6,L,0.20076699029126213,0.2222142857142857,0.3558333333333333,0.183
24,2,3,0,2,16.22599999999999,12,75,60,55,51,54,16.28699999999999,2.1349999999999985,1.0979999999999994,1.463999999999999,13,5,5,2,76,8,5,3,4,1,48,4,6,L,0.21430263157894736,0.266875,0.2196,0.4879999999999999
24,2,4,0,7,47.33599999999996,18,208,17,72,63,64,47.39699999999996,3.659999999999997,6.8319999999999945,0.427,19,9,12,2,209,18,26,2,6,0.5,30,4.5,6,L,0.22677990430622008,0.20333333333333334,0.26276923076923075,0.2135
24,3,5,0,8,28.791999999999977,12,128,117,118,26,109,32.69599999999998,7.319999999999994,0.366,0.061,20,11,2,1,146,32,2,1,2,0.5,17,2.75,6,L,0.22394520547945204,0.22874999999999998,0.183,0.061
24,3,6,0,4,16.896999999999988,19,80,98,104,99,100,17.018999999999988,0.9759999999999995,0.427,0.6099999999999999,20,7,4,2,82,7,4,3,2,1,24,2,6,L,0.20754878048780487,0.13942857142857143,0.10675,0.20333333333333334
24,4,7,0,10,22.935999999999982,15,102,92,96,59,87,25.80299999999998,0.6099999999999999,11.040999999999991,0.8539999999999996,20,4,12,2,114,4,41,2,3,0.5,22,3.25,6,L,0.22634210526315787,0.1525,0.26929268292682923,0.4269999999999999
24,4,8,0,1,16.16499999999999,17,77,75,73,20,69,16.652999999999988,7.258999999999994,7.807999999999994,3.1719999999999975,20,14,15,10,80,28,29,15,3,0,16,4,6,L,0.20816249999999997,0.25925,0.2692413793103448,0.21146666666666666
24,5,9,0,2,19.458999999999985,15,80,51,60,13,53,22.020999999999983,0.9149999999999996,0.488,4.330999999999997,20,6,1,9,87,6,1,19,4,0.5,30,4.5,6,L,0.2531149425287356,0.1525,0.488,0.2279473684210526
24,5,10,0,10,22.691999999999982,14,107,92,93,86,95,26.41299999999998,2.622999999999998,0.366,0.8539999999999996,20,9,2,2,126,10,2,2,3,1,36,3,6,L,0.2096269841269841,0.2623,0.183,0.4269999999999999
25,1,1,0,9,15.066999999999988,14,70,3,69,66,70,27.693999999999978,0.061,0.061,0.427,20,1,1,2,125,1,1,3,4,0.5,30,4.5,6,L,0.22155199999999997,0.061,0.061,0.14233333333333334
25,1,2,0,8,16.16499999999999,20,78,115,117,109,116,18.665999999999986,0.5489999999999999,2.805999999999998,0.183,20,2,9,2,88,3,10,2,2,1,24,2,6,L,0.21211363636363634,0.183,0.28059999999999996,0.0915
25,2,3,0,3,27.815999999999978,10,122,32,31,25,79,29.096999999999976,0.7319999999999998,0.305,4.635999999999997,14,3,2,6,127,4,2,16,5,0.5,33,4.5,6,L,0.2291102362204724,0.183,0.1525,0.28974999999999995
25,2,4,0,5,13.907999999999989,18,66,40,43,39,59,14.456999999999988,5.062999999999996,15.310999999999988,0.061,20,12,17,1,68,21,63,1,5,0.5,34,4.75,6,L,0.21260294117647058,0.24109523809523808,0.24303174603174602,0.061
25,3,5,0,9,41.78499999999997,15,190,70,61,15,14,42.76099999999997,0.9149999999999996,7.990999999999993,7.563999999999994,20,2,12,13,198,2,31,37,4,0,20,5,6,L,0.21596464646464644,0.45749999999999985,0.25777419354838704,0.20443243243243242
25,3,6,0,2,27.754999999999978,19,140,56,53,55,32,29.462999999999976,1.9519999999999986,3.598999999999997,9.332999999999993,20,6,12,15,149,6,20,38,4,0.5,29,4.25,6,L,0.19773825503355702,0.3253333333333333,0.17994999999999997,0.24560526315789472
25,4,7,0,6,16.10399999999999,15,79,2,5,3,38,16.16499999999999,2.2569999999999983,9.942999999999993,5.306999999999996,16,10,13,10,80,13,40,15,6,0.5,41,5.75,6,L,0.20206249999999998,0.17361538461538462,0.248575,0.35379999999999995
25,4,8,0,9,38.30799999999997,18,167,62,72,70,13,38.42999999999997,3.720999999999997,3.1719999999999975,0.6099999999999999,20,9,11,3,169,9,15,3,4,0.5,30,4.5,6,L,0.227396449704142,0.41344444444444434,0.21146666666666664,0.20333333333333334
25,5,9,0,10,12.87099999999999,14,54,92,95,89,87,14.273999999999988,0.305,1.646999999999999,2.8669999999999978,20,2,7,8,62,2,9,9,3,1,36,3,6,L,0.2302258064516129,0.1525,0.183,0.31855555555555554
25,5,10,0,6,15.188999999999988,20,78,2,1,5,9,15.249999999999988,2.1959999999999984,0.6709999999999998,0.9149999999999996,20,7,4,3,79,8,5,3,6,1,72,6,6,L,0.1930379746835443,0.27449999999999997,0.13419999999999999,0.30499999999999994
26,1,1,0,6,7.319999999999994,4,36,6,2,4,9,7.380999999999994,0.122,0.244,0.5489999999999999,5,1,2,1,37,1,4,2,6,1,72,6,6,L,0.19948648648648645,0.122,0.061,0.27449999999999997
26,1,2,0,8,22.935999999999982,19,104,111,113,110,50,23.78999999999998,2.0739999999999985,2.1349999999999985,2.0129999999999986,20,6,7,7,107,8,7,9,2,0.5,16,2.5,6,L,0.22233644859813081,0.25925,0.305,0.22366666666666662
26,2,4,0,3,16.22599999999999,19,84,32,26,30,25,21.166999999999984,0.061,0.244,0.122,20,1,2,2,106,1,2,2,5,1,60,5,6,L,0.19968867924528302,0.061,0.122,0.061
26,3,5,0,3,4.574999999999997,4,23,32,33,27,31,4.635999999999997,0.122,0.8539999999999996,0.061,5,1,2,1,24,1,7,1,5,1,60,5,6,L,0.19316666666666665,0.122,0.122,0.061
26,3,6,0,1,24.58299999999998,20,119,14,73,43,112,51.97199999999996,2.3789999999999982,0.7929999999999997,0.122,20,9,3,1,245,11,3,1,3,0,16,4,6,L,0.21213061224489793,0.21627272727272726,0.2643333333333333,0.122
26,4,7,0,3,3.659999999999997,4,26,33,31,35,36,3.720999999999997,1.3419999999999992,0.305,0.061,5,3,2,1,27,6,2,1,5,1,60,5,6,L,0.1378148148148148,0.22366666666666665,0.1525,0.061
26,4,8,0,4,30.316999999999975,19,150,103,107,11,5,32.69599999999998,0.9759999999999995,6.526999999999995,1.8299999999999987,20,5,14,8,158,6,22,10,2,0,16,4,6,L,0.2069367088607595,0.16266666666666665,0.29668181818181816,0.183
26,5,9,0,10,19.275999999999986,20,90,96,89,91,47,20.983999999999984,0.366,6.221999999999995,1.8909999999999987,20,3,13,4,96,3,24,5,3,0.5,23,3.5,6,L,0.21858333333333332,0.122,0.25925,0.3782
26,5,10,0,1,18.238999999999987,16,101,75,84,83,29,21.044999999999984,2.0129999999999986,1.8299999999999987,1.463999999999999,20,10,6,5,113,15,10,5,3,0.5,23,3.5,6,L,0.18623893805309732,0.13419999999999999,0.183,0.2928
28,1,1,0,8,14.761999999999988,19,75,112,111,120,13,24.15599999999998,2.622999999999998,0.122,2.439999999999998,20,8,2,8,116,10,2,10,2,0.5,18,3,6,L,0.2082413793103448,0.2623,0.061,0.24399999999999997
28,1,2,0,4,22.386999999999983,15,99,105,100,106,3,22.996999999999982,3.2939999999999974,1.1589999999999994,4.574999999999997,19,8,5,8,103,13,7,17,2,0.5,18,3,6,L,0.22327184466019415,0.2533846153846154,0.16557142857142856,0.26911764705882346
28,2,3,0,10,19.153999999999986,16,87,86,87,95,46,19.702999999999985,0.7929999999999997,0.305,8.173999999999994,19,5,2,12,90,7,2,39,3,0.5,23,3.5,6,L,0.2189222222222222,0.11328571428571428,0.1525,0.20958974358974358
28,2,4,0,1,26.77899999999998,15,128,79,82,78,76,26.96199999999998,0.183,2.0129999999999986,4.086999999999997,16,2,11,11,129,2,16,14,3,1,36,3,6,L,0.2090077519379845,0.0915,0.1258125,0.29192857142857137
28,3,5,0,7,23.057999999999982,16,103,13,17,62,18,25.43699999999998,1.524999999999999,0.244,0.7929999999999997,20,6,2,3,111,6,2,3,6,0.5,40,5.5,6,L,0.22916216216216215,0.25416666666666665,0.122,0.2643333333333333
28,3,6,0,5,25.00999999999998,15,126,37,57,58,38,25.25399999999998,6.8319999999999945,2.9279999999999977,0.8539999999999996,18,14,9,3,129,30,12,3,5,0,18,4.5,6,L,0.1957674418604651,0.22773333333333332,0.244,0.2846666666666666
28,4,7,0,6,16.04299999999999,17,83,8,5,9,11,17.933999999999987,5.367999999999996,2.9279999999999977,0.488,20,11,8,3,92,18,10,3,6,1,72,6,6,L,0.19493478260869565,0.2982222222222222,0.29279999999999995,0.16266666666666665
28,4,8,0,7,19.336999999999986,18,81,14,17,16,15,19.641999999999985,2.1959999999999984,0.488,9.881999999999993,20,8,2,15,83,9,2,40,6,1,72,6,6,L,0.23665060240963853,0.244,0.244,0.24704999999999996
28,5,10,0,6,34.891999999999975,14,183,6,4,2,101,35.989999999999974,1.8299999999999987,2.9889999999999977,0.7929999999999997,19,7,6,4,188,9,10,4,6,0.5,38,5,6,L,0.19143617021276596,0.2033333333333333,0.2989,0.19824999999999998
29,1,1,0,1,14.273999999999988,16,71,75,38,76,82,14.334999999999988,12.13899999999999,0.061,1.1589999999999994,17,14,1,5,72,43,1,6,3,0.5,23,3.5,6,L,0.1990972222222222,0.2823023255813953,0.061,0.19316666666666665
29,1,2,0,3,24.03399999999998,17,102,28,34,13,88,25.68099999999998,4.208999999999997,9.820999999999993,0.9149999999999996,20,12,17,4,110,22,48,4,5,0,19,4.75,6,L,0.23346363636363635,0.1913181818181818,0.20460416666666664,0.22875
29,2,3,0,9,15.920999999999987,15,80,71,63,62,46,17.079999999999988,1.7689999999999988,1.585999999999999,2.3789999999999982,20,5,7,6,86,6,9,8,4,0.5,29,4.25,6,L,0.1986046511627907,0.2948333333333333,0.1762222222222222,0.29737499999999994
29,2,4,0,2,30.316999999999975,16,137,57,95,90,93,33.122999999999976,6.953999999999994,4.391999999999997,7.197999999999994,20,13,8,12,147,27,18,27,4,0.5,22,3.25,6,L,0.22532653061224486,0.25755555555555554,0.244,0.26659259259259255
29,3,5,0,5,22.264999999999983,15,113,3,41,88,106,51.36199999999996,1.3419999999999992,0.183,0.122,20,3,2,1,217,3,2,1,5,0,16,4,6,L,0.2366912442396313,0.44733333333333325,0.0915,0.122
29,3,6,0,9,35.806999999999974,19,166,71,69,63,31,36.59999999999997,1.646999999999999,0.6099999999999999,0.7929999999999997,20,7,3,1,171,10,3,1,4,0.5,29,4.25,6,L,0.21403508771929824,0.16469999999999999,0.20333333333333334,0.7929999999999997
29,4,7,0,4,26.59599999999998,16,119,96,103,101,98,36.29499999999997,0.122,0.427,1.1589999999999994,20,2,3,5,156,2,3,5,2,0.5,15,2.25,6,L,0.2326602564102564,0.061,0.14233333333333334,0.2318
29,4,8,0,7,12.74899999999999,16,60,13,16,20,23,13.724999999999989,2.1959999999999984,1.585999999999999,2.0739999999999985,20,5,8,8,66,8,8,12,6,1,72,6,6,L,0.20795454545454545,0.27449999999999997,0.19824999999999998,0.17283333333333334
29,5,9,0,1,36.96599999999997,19,172,74,80,82,11,38.73499999999997,0.122,1.524999999999999,2.805999999999998,20,2,6,8,179,2,7,11,3,0.5,24,3.75,6,L,0.21639664804469272,0.061,0.21785714285714283,0.2550909090909091
29,5,10,0,7,4.940999999999996,4,26,16,21,22,24,5.245999999999996,0.7319999999999998,0.122,0.122,6,2,2,1,29,3,2,1,6,1,72,6,6,L,0.18089655172413793,0.24399999999999997,0.061,0.122
30,1,1,0,7,13.48099999999999,4,62,20,19,14,18,13.54199999999999,1.4029999999999991,0.061,0.122,5,3,1,1,63,5,1,1,6,1,72,6,6,L,0.21495238095238092,0.28059999999999996,0.061,0.122
30,1,2,0,6,22.569999999999983,17,102,5,11,7,74,23.362999999999982,1.2809999999999993,3.903999999999997,10.430999999999992,20,6,12,15,105,6,16,43,6,0.5,39,5.25,6,L,0.2225047619047619,0.2135,0.24399999999999997,0.2425813953488372
30,2,4,0,8,22.020999999999983,16,103,112,116,111,110,25.19299999999998,0.7319999999999998,0.244,0.366,20,4,2,2,121,4,2,2,2,1,24,2,6,L,0.20820661157024792,0.183,0.122,0.183
30,3,5,0,6,15.493999999999987,15,81,7,5,4,12,15.981999999999987,3.537999999999997,0.7929999999999997,2.439999999999998,17,9,4,7,83,10,4,9,6,1,72,6,6,L,0.19255421686746987,0.35379999999999995,0.19824999999999998,0.2711111111111111
30,3,6,0,10,59.84099999999995,16,270,96,88,86,58,60.93899999999995,1.7079999999999989,1.8909999999999987,3.659999999999997,19,6,5,11,274,8,6,16,3,0.5,22,3.25,6,L,0.22240510948905107,0.21349999999999997,0.31516666666666665,0.22874999999999998
30,4,7,0,6,6.953999999999994,4,36,5,1,9,10,7.075999999999994,0.427,0.061,0.366,6,2,1,1,38,2,1,1,6,1,72,6,6,L,0.18621052631578944,0.2135,0.061,0.366
30,4,8,0,5,21.593999999999983,19,101,46,14,43,44,21.715999999999983,7.197999999999994,2.683999999999998,0.9149999999999996,20,13,13,3,103,28,15,4,5,0.5,36,5.25,6,L,0.21083495145631068,0.25707142857142856,0.17893333333333333,0.22875
30,5,9,0,6,4.7579999999999965,4,24,2,3,11,7,4.879999999999996,0.061,0.061,0.061,6,1,1,1,26,1,1,1,6,1,72,6,6,L,0.18769230769230769,0.061,0.061,0.061
30,5,10,0,9,20.129999999999985,19,103,72,13,63,20,20.861999999999984,28.303999999999977,0.122,2.0739999999999985,20,19,1,9,106,126,1,12,4,0,20,5,6,L,0.19681132075471697,0.2246349206349206,0.122,0.17283333333333334
31,1,1,0,10,20.739999999999984,20,106,95,92,96,93,20.861999999999984,4.147999999999997,0.7319999999999998,5.489999999999996,20,8,4,15,108,15,5,32,3,1,36,3,6,L,0.19316666666666665,0.2765333333333333,0.1464,0.17156249999999998
31,1,2,0,8,10.247999999999992,15,59,115,110,119,111,13.907999999999989,0.305,0.305,0.305,20,3,2,3,70,3,2,3,2,1,24,2,6,L,0.19868571428571427,0.10166666666666667,0.1525,0.10166666666666667
31,2,3,0,4,29.279999999999976,20,140,99,103,104,5,29.584999999999976,0.061,2.805999999999998,3.598999999999997,20,1,7,10,141,1,7,15,2,0.5,18,3,6,L,0.20982269503546097,0.061,0.40085714285714275,0.2399333333333333
31,2,4,0,7,14.761999999999988,16,70,14,20,16,17,17.323999999999987,0.9759999999999995,1.463999999999999,9.454999999999993,20,3,5,12,81,3,7,37,6,1,72,6,6,L,0.21387654320987654,0.3253333333333332,0.20914285714285713,0.25554054054054054
31,3,5,0,7,4.574999999999997,4,22,16,13,19,17,4.635999999999997,0.305,0.061,0.183,5,1,1,1,23,1,1,1,6,1,72,6,6,L,0.20156521739130434,0.305,0.061,0.183
31,3,6,0,9,24.21699999999998,16,110,64,69,68,4,24.70499999999998,1.0369999999999995,2.3789999999999982,10.430999999999992,19,4,9,16,113,6,13,42,4,0.5,30,4.5,6,L,0.21862831858407078,0.17283333333333334,0.183,0.24835714285714283
31,4,7,0,7,5.489999999999996,4,23,13,23,15,20,6.404999999999996,1.0979999999999994,0.183,0.122,7,3,1,1,29,4,1,1,6,1,72,6,6,L,0.22086206896551722,0.2744999999999999,0.183,0.122
31,4,8,0,6,11.223999999999991,18,59,12,1,10,11,15.676999999999989,2.1959999999999984,4.269999999999997,2.439999999999998,20,8,9,9,77,11,16,12,6,1,72,6,6,L,0.20359740259740258,0.19963636363636364,0.266875,0.2033333333333333
31,5,9,0,6,2.8669999999999978,4,15,10,2,9,12,3.110999999999998,0.427,0.061,0.061,6,1,1,1,17,1,1,1,6,1,72,6,6,L,0.183,0.427,0.061,0.061
31,5,10,0,7,13.907999999999989,12,62,17,19,23,45,15.432999999999987,2.1349999999999985,2.3179999999999983,5.855999999999995,16,11,6,13,66,12,6,27,6,0.5,41,5.75,6,L,0.2338333333333333,0.17791666666666667,0.3863333333333332,0.21688888888888888
32,1,1,0,3,32.63499999999998,19,157,25,34,31,27,36.23399999999997,0.5489999999999999,0.427,3.9649999999999967,20,2,2,11,169,2,3,17,5,1,60,5,6,L,0.21440236686390532,0.27449999999999997,0.14233333333333334,0.23323529411764704
32,1,2,0,1,17.689999999999987,20,85,76,77,78,65,24.94899999999998,0.122,6.160999999999995,1.2809999999999993,20,1,14,3,119,1,30,4,3,0.5,22,3.25,6,L,0.20965546218487394,0.122,0.20536666666666664,0.3202499999999999
32,2,3,0,3,3.2329999999999974,4,18,27,33,34,35,5.184999999999996,0.244,1.0979999999999994,0.061,8,2,2,1,27,2,5,1,5,1,60,5,6,L,0.192037037037037,0.122,0.2196,0.061
32,2,4,0,4,28.364999999999977,20,125,99,103,108,107,30.804999999999975,0.244,0.122,0.6709999999999998,20,2,1,4,140,2,1,4,2,1,24,2,6,L,0.22003571428571428,0.122,0.122,0.16775
32,3,5,0,5,37.08799999999997,15,163,47,40,48,37,37.14899999999997,2.1349999999999985,7.136999999999994,3.0499999999999976,16,12,14,9,164,13,28,13,5,1,60,5,6,L,0.2265182926829268,0.16423076923076924,0.25489285714285714,0.2346153846153846
32,3,6,0,3,15.188999999999988,19,80,32,33,27,30,16.591999999999988,0.5489999999999999,9.881999999999993,0.305,20,2,17,2,87,2,43,2,5,1,60,5,6,L,0.1907126436781609,0.27449999999999997,0.22981395348837208,0.1525
32,4,8,0,3,4.025999999999997,4,21,29,28,33,36,4.757999999999997,1.0979999999999994,0.366,0.061,6,3,2,1,23,4,2,1,5,1,60,5,6,L,0.2068695652173913,0.2744999999999999,0.183,0.061
32,5,9,0,7,16.34799999999999,16,75,18,22,23,63,17.384999999999987,0.183,7.075999999999994,11.95599999999999,20,2,15,15,81,2,38,47,6,0.5,40,5.5,6,L,0.21462962962962961,0.0915,0.18621052631578947,0.2543829787234042
33,1,1,0,9,11.77299999999999,14,56,66,76,80,42,21.837999999999983,8.234999999999994,0.9759999999999995,3.659999999999997,20,13,3,9,102,29,5,16,4,0,15,3.75,6,L,0.21409803921568626,0.28396551724137925,0.19519999999999998,0.22874999999999995
33,1,2,0,10,25.49799999999998,16,120,2,5,50,95,39.71099999999997,3.4159999999999973,0.122,2.1959999999999984,20,9,1,8,178,13,1,8,3,0,19,4.75,6,L,0.2230955056179775,0.2627692307692307,0.122,0.27449999999999997
33,2,3,0,6,13.907999999999989,18,69,12,2,3,9,16.04299999999999,8.539999999999994,2.744999999999998,2.9889999999999977,20,16,13,11,77,39,16,19,6,1,72,6,6,L,0.20835064935064934,0.21897435897435896,0.1715625,0.1573157894736842
33,2,4,0,10,14.517999999999988,16,63,92,87,86,71,14.700999999999988,1.463999999999999,0.7929999999999997,11.040999999999991,17,6,2,17,64,7,2,51,3,0.5,22,3.25,6,L,0.22970312499999998,0.20914285714285713,0.3964999999999999,0.21649019607843134
33,3,6,0,4,21.776999999999983,20,102,107,108,99,57,22.813999999999982,0.8539999999999996,1.3419999999999992,11.040999999999991,20,4,4,16,106,4,5,52,2,0.5,16,2.5,6,L,0.2152264150943396,0.2135,0.26839999999999997,0.21232692307692305
33,4,7,0,5,22.325999999999983,15,91,43,42,47,46,23.362999999999982,0.427,0.5489999999999999,4.391999999999997,18,3,3,12,96,4,3,24,5,1,60,5,6,L,0.24336458333333333,0.10675,0.183,0.183
33,4,8,0,8,23.301999999999982,18,107,112,120,111,29,23.60699999999998,0.7929999999999997,8.783999999999994,12.13899999999999,20,3,14,15,110,3,35,43,2,0.5,17,2.75,6,L,0.2146090909090909,0.2643333333333333,0.2509714285714285,0.28230232558139534
33,5,9,0,5,14.700999999999988,4,64,37,39,42,44,14.822999999999988,0.122,2.0739999999999985,0.122,6,2,2,1,66,2,5,1,5,1,60,5,6,L,0.22459090909090906,0.061,0.4147999999999999,0.122
33,5,10,0,3,57.217999999999954,17,246,16,85,113,33,73.32199999999995,0.244,0.305,1.585999999999999,20,2,2,5,322,2,2,5,5,0,16,4,6,L,0.22770807453416148,0.122,0.1525,0.3172
34,1,1,0,5,7.624999999999994,4,40,46,40,45,48,7.807999999999994,0.6709999999999998,0.244,0.427,6,2,1,1,42,4,1,1,5,1,60,5,6,L,0.1859047619047619,0.16775,0.244,0.427
34,1,2,0,7,32.14699999999998,17,149,13,29,22,20,38.79599999999997,0.8539999999999996,3.4159999999999973,1.0369999999999995,20,3,15,3,183,3,24,4,6,0.5,41,5.75,6,L,0.212,0.2846666666666667,0.14233333333333334,0.25925
34,2,3,0,3,32.69599999999998,17,146,27,28,36,85,33.732999999999976,1.463999999999999,0.061,4.635999999999997,20,9,1,11,151,10,1,19,5,0.5,33,4.5,6,L,0.22339735099337746,0.1464,0.061,0.244
34,2,4,0,1,11.77299999999999,15,64,79,82,83,1,14.944999999999988,1.646999999999999,0.061,6.404999999999995,20,5,1,13,81,5,1,22,3,0.5,24,3.75,6,L,0.18450617283950616,0.32939999999999997,0.061,0.2911363636363636
34,3,5,0,6,17.201999999999988,12,80,4,9,12,5,17.262999999999987,0.122,3.2939999999999974,0.7319999999999998,13,2,7,3,81,2,16,4,6,1,72,6,6,L,0.21312345679012343,0.061,0.205875,0.183
34,3,6,0,5,26.47399999999998,18,109,37,39,42,46,27.754999999999978,1.9519999999999986,1.1589999999999994,3.3549999999999973,20,8,7,11,117,12,7,17,5,1,60,5,6,L,0.2372222222222222,0.16266666666666665,0.16557142857142856,0.19735294117647056
34,4,7,0,3,15.859999999999987,17,72,28,25,31,26,15.920999999999987,2.0739999999999985,1.8909999999999987,0.6099999999999999,18,8,9,3,73,10,10,3,5,1,60,5,6,L,0.2180958904109589,0.20739999999999997,0.1891,0.20333333333333334
34,4,8,0,5,14.944999999999988,4,72,37,40,42,48,15.432999999999987,0.061,1.4029999999999991,0.061,6,1,2,1,74,1,9,1,5,1,60,5,6,L,0.20855405405405406,0.061,0.15588888888888888,0.061
34,5,9,0,5,2.744999999999998,4,20,39,41,40,44,3.110999999999998,0.061,0.061,0.244,7,1,1,1,23,1,1,3,5,1,60,5,6,L,0.13526086956521738,0.061,0.061,0.08133333333333333
34,5,10,0,2,45.932999999999964,16,197,58,50,49,57,47.64099999999996,0.366,0.6099999999999999,3.1109999999999975,20,2,2,12,205,2,2,20,4,1,48,4,6,L,0.2323951219512195,0.183,0.305,0.15555
35,1,1,0,5,5.916999999999995,4,29,40,42,47,44,5.977999999999995,0.183,0.061,0.183,5,2,1,1,30,2,1,1,5,1,60,5,6,L,0.19926666666666665,0.0915,0.061,0.183
35,1,2,0,10,14.944999999999988,18,79,87,96,85,94,16.469999999999988,0.9149999999999996,1.524999999999999,2.439999999999998,20,5,5,10,87,5,5,13,3,1,36,3,6,L,0.18931034482758619,0.183,0.3049999999999999,0.18769230769230769
35,2,3,0,5,4.452999999999997,4,20,45,42,41,44,4.513999999999997,0.305,0.122,0.061,5,2,1,1,21,3,1,1,5,1,60,5,6,L,0.21495238095238092,0.10166666666666667,0.122,0.061
35,2,4,0,10,12.74899999999999,19,67,90,91,93,86,15.249999999999988,0.488,1.4029999999999991,2.805999999999998,20,3,6,11,76,3,7,14,3,1,36,3,6,L,0.2006578947368421,0.16266666666666665,0.20042857142857143,0.20042857142857143
35,3,6,0,3,11.467999999999991,16,61,36,56,49,3,11.650999999999991,16.469999999999988,4.818999999999996,4.147999999999997,17,13,12,9,62,59,24,14,5,0,19,4.75,6,L,0.18791935483870967,0.2791525423728813,0.20079166666666665,0.29628571428571426
35,4,7,0,7,10.186999999999992,14,57,20,19,23,59,11.284999999999991,7.258999999999994,0.183,1.7689999999999988,20,13,1,5,65,40,1,6,6,0.5,40,5.5,6,L,0.17361538461538462,0.181475,0.183,0.2948333333333333
35,4,8,0,5,26.83999999999998,16,116,43,4,65,1,27.327999999999978,5.977999999999995,10.613999999999992,10.491999999999992,19,14,18,15,119,28,60,39,5,0,21,5.25,6,L,0.2296470588235294,0.21349999999999997,0.1769,0.26902564102564097
35,5,9,0,8,9.271999999999993,11,48,51,113,115,118,57.58399999999995,0.122,0.305,0.061,20,2,2,1,232,2,2,1,2,0.5,16,2.5,6,L,0.24820689655172412,0.061,0.1525,0.061
35,5,10,0,6,19.092999999999986,16,97,3,1,11,76,22.569999999999983,12.38299999999999,3.720999999999997,0.427,20,17,10,1,116,56,10,1,6,0.5,39,5.25,6,L,0.19456896551724137,0.221125,0.37209999999999993,0.427
36,1,1,0,1,5.977999999999995,12,29,39,82,43,74,17.445999999999987,0.183,0.488,0.061,20,2,2,1,84,2,2,1,3,0,16,4,6,L,0.20769047619047618,0.0915,0.244,0.061
36,1,2,0,3,17.201999999999988,18,75,36,33,50,32,19.275999999999986,3.537999999999997,4.147999999999997,0.122,20,7,11,2,81,10,18,2,5,0.5,34,4.75,6,L,0.23797530864197528,0.3537999999999999,0.23044444444444442,0.061
36,2,3,0,6,19.519999999999985,16,98,10,2,7,3,19.824999999999985,2.439999999999998,2.805999999999998,5.306999999999996,20,7,5,8,102,8,6,23,6,1,72,6,6,L,0.19436274509803922,0.30499999999999994,0.4676666666666665,0.23073913043478259
36,2,4,0,2,16.957999999999988,19,82,50,81,55,13,19.885999999999985,2.439999999999998,2.1959999999999984,4.7579999999999965,20,7,8,13,96,9,13,23,4,0,17,4.25,6,L,0.20714583333333333,0.271111111111111,0.16892307692307693,0.2068695652173913
36,3,5,0,10,20.617999999999984,20,95,95,89,63,41,20.678999999999984,2.1959999999999984,1.8909999999999987,4.391999999999997,20,6,8,14,96,7,11,22,3,0,15,3.75,6,L,0.21540625,0.31371428571428567,0.1719090909090909,0.19963636363636364
36,3,6,0,6,17.750999999999987,13,84,4,3,1,80,17.811999999999987,1.1589999999999994,3.842999999999997,3.659999999999997,14,6,9,9,85,7,18,13,6,0.5,39,5.25,6,L,0.20955294117647058,0.16557142857142856,0.2135,0.2815384615384615
36,4,7,0,3,10.064999999999992,16,59,30,25,27,35,11.284999999999991,1.4029999999999991,0.427,2.1959999999999984,20,6,3,10,67,8,3,14,5,1,60,5,6,L,0.16843283582089552,0.175375,0.14233333333333334,0.15685714285714286
36,4,8,0,2,29.401999999999976,18,133,19,96,59,49,55.936999999999955,0.5489999999999999,0.427,1.463999999999999,20,1,4,3,244,1,5,4,4,0,17,4.25,6,L,0.22924999999999998,0.5489999999999999,0.0854,0.3659999999999999
36,5,10,0,5,17.811999999999987,15,84,43,37,42,39,18.970999999999986,0.061,2.0739999999999985,0.305,19,1,9,3,89,1,11,3,5,1,60,5,6,L,0.2131573033707865,0.061,0.18854545454545454,0.10166666666666667
37,1,1,0,5,8.661999999999994,4,35,37,41,42,45,8.905999999999993,0.061,1.7689999999999988,0.183,7,1,2,1,38,1,13,1,5,1,60,5,6,L,0.23436842105263156,0.061,0.13607692307692307,0.183
37,1,2,0,2,32.26899999999998,18,148,53,60,49,28,37.27099999999997,1.2199999999999993,3.0499999999999976,2.9279999999999977,20,5,11,9,164,5,18,13,4,0.5,29,4.25,6,L,0.2272621951219512,0.244,0.16944444444444445,0.22523076923076923
37,2,4,0,6,31.353999999999974,17,146,2,8,4,7,31.414999999999974,7.075999999999994,5.7949999999999955,1.3419999999999992,18,15,15,6,147,27,24,9,6,1,72,6,6,L,0.21370748299319725,0.262074074074074,0.2414583333333333,0.1491111111111111
37,3,5,0,1,19.031999999999986,19,93,79,83,82,15,23.057999999999982,0.061,2.3179999999999983,13.41999999999999,20,1,12,17,106,1,12,62,3,0.5,24,3.75,6,L,0.21752830188679242,0.061,0.19316666666666665,0.2164516129032258
37,3,6,0,6,9.210999999999993,4,40,11,7,2,12,9.271999999999993,0.305,0.6709999999999998,0.061,5,2,1,1,41,2,3,1,6,1,72,6,6,L,0.2261463414634146,0.1525,0.22366666666666665,0.061
37,4,7,0,7,22.020999999999983,16,104,16,23,69,28,22.081999999999983,12.56599999999999,8.661999999999994,4.635999999999997,17,17,15,13,105,63,42,20,6,0,21,5.25,6,L,0.21030476190476188,0.19946031746031745,0.20623809523809522,0.23179999999999995
37,5,9,0,3,7.8689999999999936,11,41,34,35,25,31,11.95599999999999,3.476999999999997,13.846999999999989,1.4029999999999991,20,11,13,6,59,17,51,7,5,1,60,5,6,L,0.20264406779661015,0.20452941176470585,0.2715098039215686,0.20042857142857143
37,5,10,0,7,23.66799999999998,19,100,14,16,17,24,24.58299999999998,2.561999999999998,8.722999999999994,0.488,20,9,16,3,101,9,35,4,6,1,72,6,6,L,0.24339603960396036,0.2846666666666666,0.2492285714285714,0.122
38,1,1,0,2,25.74199999999998,18,123,58,60,51,46,27.02299999999998,0.5489999999999999,3.537999999999997,5.7949999999999955,20,3,9,14,130,3,12,30,4,0.5,29,4.25,6,L,0.20786923076923075,0.183,0.2948333333333333,0.19316666666666665
38,1,2,0,7,11.101999999999991,4,42,18,17,16,20,11.162999999999991,1.7079999999999989,3.1109999999999975,0.7319999999999998,5,3,2,1,43,8,17,3,6,1,72,6,6,L,0.25960465116279063,0.21349999999999997,0.183,0.244
38,2,3,0,7,3.9649999999999967,4,27,16,18,21,23,5.245999999999996,0.305,0.244,0.305,7,1,2,1,32,1,2,3,6,1,72,6,6,L,0.16393749999999999,0.305,0.122,0.10166666666666667
38,2,4,0,1,17.994999999999987,20,87,73,84,75,35,18.848999999999986,0.427,3.1719999999999975,4.940999999999996,20,3,9,13,92,3,12,20,3,0.5,23,3.5,6,L,0.20488043478260867,0.14233333333333334,0.2643333333333333,0.24704999999999996
38,3,6,0,5,11.101999999999991,15,52,42,8,10,3,11.83399999999999,19.336999999999986,2.3179999999999983,13.17599999999999,17,14,11,12,54,90,14,56,5,0.5,41,5.75,6,L,0.21914814814814812,0.21485555555555555,0.16557142857142856,0.23528571428571426
38,4,7,0,10,23.240999999999982,16,118,88,91,35,68,25.55899999999998,4.208999999999997,19.336999999999986,1.2199999999999993,20,11,14,5,128,19,86,5,3,0,15,3.75,6,L,0.19967968749999998,0.22152631578947368,0.2248488372093023,0.2439999999999999
38,4,8,0,6,40.62599999999997,12,188,11,10,83,2,42.21199999999997,3.2939999999999974,0.9149999999999996,1.8299999999999987,20,8,4,8,197,13,4,12,6,0.5,39,5.25,6,L,0.2142741116751269,0.2533846153846153,0.22874999999999995,0.1525
38,5,9,0,2,17.018999999999988,15,86,53,26,59,74,27.87699999999998,0.7319999999999998,0.9759999999999995,0.7319999999999998,20,4,4,3,137,4,5,4,4,0,16,4,6,L,0.2034817518248175,0.183,0.19519999999999998,0.183
38,5,10,0,4,27.571999999999978,17,119,107,97,105,65,29.096999999999976,1.9519999999999986,2.2569999999999983,4.330999999999997,20,5,7,11,131,7,10,21,2,0.5,16,2.5,6,L,0.22211450381679387,0.2788571428571428,0.22569999999999996,0.20623809523809522
39,1,1,0,10,15.066999999999988,12,71,89,38,96,93,15.615999999999987,1.9519999999999986,1.8909999999999987,1.585999999999999,15,5,6,5,74,6,7,5,3,0.5,23,3.5,6,L,0.21102702702702703,0.32533333333333325,0.27014285714285713,0.3171999999999999
39,1,2,0,8,27.02299999999998,20,113,110,28,81,111,27.571999999999978,1.0979999999999994,8.539999999999994,1.4029999999999991,20,1,15,5,117,2,31,5,2,0,12,3,6,L,0.23565811965811964,0.5489999999999998,0.2754838709677419,0.2806
39,2,3,0,4,14.944999999999988,15,61,103,2,105,1,15.066999999999988,11.223999999999991,0.7929999999999997,7.563999999999994,16,14,4,13,62,40,4,29,2,0,16,4,6,L,0.24301612903225805,0.28059999999999996,0.19824999999999998,0.26082758620689656
39,2,4,0,1,20.495999999999984,16,104,74,73,79,78,21.654999999999983,1.2809999999999993,0.305,0.6709999999999998,20,6,3,3,111,7,3,4,3,1,36,3,6,L,0.19509009009009007,0.183,0.10166666666666667,0.16775
39,3,5,0,7,13.907999999999989,12,76,14,13,22,23,16.469999999999988,5.184999999999996,0.366,0.5489999999999999,20,9,2,5,86,17,2,6,6,1,72,6,6,L,0.19151162790697673,0.30499999999999994,0.183,0.0915
39,3,6,0,10,46.054999999999964,14,207,85,88,10,95,47.88499999999996,4.269999999999997,1.0369999999999995,1.1589999999999994,20,12,5,3,215,20,5,5,3,0.5,24,3.75,6,L,0.22272093023255812,0.2135,0.2074,0.2318
39,4,7,0,9,38.73499999999997,17,164,66,64,72,42,41.47999999999997,0.122,2.3789999999999982,1.1589999999999994,20,1,7,3,174,1,9,3,4,0.5,29,4.25,6,L,0.23839080459770112,0.122,0.26433333333333325,0.38633333333333325
39,4,8,0,2,23.057999999999982,14,105,55,105,18,56,25.49799999999998,7.380999999999994,5.550999999999996,0.061,18,14,11,1,110,28,19,1,4,0,16,4,6,L,0.23179999999999998,0.2636071428571428,0.29215789473684206,0.061
39,5,9,0,1,26.83999999999998,16,116,75,48,78,76,27.388999999999978,2.0129999999999986,2.0129999999999986,0.244,20,5,4,1,122,7,8,1,3,0.5,23,3.5,6,L,0.22449999999999998,0.2875714285714285,0.251625,0.244
39,5,10,0,10,10.918999999999992,19,55,20,18,30,86,32.02499999999998,10.247999999999992,0.5489999999999999,2.622999999999998,20,19,2,14,134,43,2,15,3,0,20,5,6,L,0.2389925373134328,0.23832558139534882,0.27449999999999997,0.17486666666666667
41,1,1,0,4,19.641999999999985,20,95,104,100,14,101,23.179999999999982,0.7929999999999997,0.427,0.7319999999999998,20,3,4,4,115,3,4,5,2,0.5,18,3,6,L,0.20156521739130434,0.2643333333333333,0.10675,0.1464
41,1,2,0,5,16.469999999999988,16,82,47,39,41,42,21.837999999999983,0.6709999999999998,0.9759999999999995,0.061,20,4,7,1,106,4,9,1,5,1,60,5,6,L,0.20601886792452828,0.16775,0.10844444444444444,0.061
41,2,4,0,10,10.430999999999992,20,57,3,59,10,91,23.179999999999982,0.7319999999999998,1.8909999999999987,4.269999999999997,20,1,4,13,113,1,5,20,3,0,19,4.75,6,L,0.20513274336283183,0.7319999999999998,0.3781999999999999,0.21349999999999997
41,3,5,0,1,38.49099999999997,18,185,79,82,29,10,41.96799999999997,0.9759999999999995,5.184999999999996,0.6099999999999999,20,4,11,3,196,4,27,3,3,0,17,4.25,6,L,0.21412244897959182,0.244,0.19203703703703703,0.20333333333333334
41,3,6,0,5,17.933999999999987,14,89,37,38,45,14,19.946999999999985,0.366,0.061,8.295999999999994,20,2,1,12,98,2,1,33,5,0.5,36,5.25,6,L,0.2035408163265306,0.183,0.061,0.2513939393939394
41,4,7,0,9,12.32199999999999,14,51,61,65,69,90,14.273999999999988,2.805999999999998,2.683999999999998,1.0369999999999995,20,6,7,5,61,10,11,9,4,0.5,27,3.75,6,L,0.23399999999999999,0.28059999999999996,0.24399999999999997,0.11522222222222223
41,4,8,0,1,20.495999999999984,16,83,84,7,59,100,24.03399999999998,20.861999999999984,0.183,11.89499999999999,20,19,1,17,100,89,1,57,3,0,15,3.75,6,L,0.24033999999999997,0.23440449438202243,0.183,0.20868421052631578
41,5,9,0,6,14.700999999999988,15,67,8,6,1,59,14.761999999999988,3.0499999999999976,11.101999999999991,0.305,16,9,12,2,68,9,51,2,6,0.5,40,5.5,6,L,0.21708823529411764,0.3388888888888888,0.2176862745098039,0.1525
41,5,10,0,7,14.090999999999989,18,81,16,22,17,68,14.151999999999989,5.428999999999996,4.208999999999997,1.1589999999999994,19,14,11,4,82,22,14,4,6,0.5,40,5.5,6,L,0.17258536585365852,0.24677272727272725,0.3006428571428571,0.28974999999999995
42,1,1,0,4,14.883999999999988,15,75,98,103,99,97,16.774999999999988,0.061,0.122,0.6099999999999999,20,1,1,4,84,1,1,4,2,1,24,2,6,L,0.19970238095238094,0.061,0.122,0.1525
42,1,2,0,1,17.689999999999987,16,88,83,81,82,33,18.055999999999987,1.585999999999999,1.463999999999999,5.001999999999996,18,7,5,8,90,10,5,21,3,0.5,23,3.5,6,L,0.2006222222222222,0.1586,0.2928,0.23819047619047617
42,2,3,0,10,46.542999999999964,15,197,96,94,36,92,48.00699999999996,0.183,2.1959999999999984,2.0129999999999986,19,1,8,9,201,1,10,11,3,0.5,23,3.5,6,L,0.23884079601990046,0.183,0.2196,0.18299999999999997
42,2,4,0,4,9.942999999999993,15,44,46,3,69,5,37.02699999999997,7.075999999999994,0.244,0.5489999999999999,20,14,1,2,154,37,1,2,2,0,21,5.25,6,L,0.24043506493506492,0.19124324324324324,0.244,0.27449999999999997
42,3,5,0,3,8.417999999999994,15,46,34,35,55,13,19.031999999999986,2.744999999999998,5.245999999999996,5.184999999999996,20,8,11,11,96,11,21,19,5,0,20,5,6,L,0.19824999999999998,0.24954545454545454,0.2498095238095238,0.27289473684210525
42,3,6,0,5,23.97299999999998,14,124,2,42,3,41,47.03099999999996,1.0369999999999995,0.7319999999999998,1.524999999999999,20,4,5,8,226,4,5,11,5,0,22,5.5,6,L,0.20810176991150442,0.25925,0.1464,0.13863636363636364
42,4,7,0,10,15.066999999999988,14,59,95,90,89,91,15.432999999999987,0.122,4.6969999999999965,2.0739999999999985,16,2,12,6,61,2,25,6,3,1,36,3,6,L,0.25299999999999995,0.061,0.18788,0.3456666666666666
42,4,8,0,9,20.373999999999985,12,102,71,68,70,6,23.362999999999982,1.1589999999999994,0.7929999999999997,9.759999999999993,20,5,4,13,115,5,4,49,4,0.5,30,4.5,6,L,0.20315652173913043,0.2318,0.19824999999999998,0.19918367346938776
42,5,9,0,6,18.177999999999987,15,86,12,1,8,3,20.373999999999985,14.212999999999989,0.366,2.439999999999998,20,15,3,9,96,63,3,10,6,1,72,6,6,L,0.21222916666666666,0.2256031746031746,0.122,0.24399999999999997
42,5,10,0,7,18.421999999999986,13,85,13,22,17,50,18.482999999999986,3.3549999999999973,6.770999999999995,3.2939999999999974,14,11,15,11,86,16,28,16,6,0.5,40,5.5,6,L,0.21491860465116278,0.2096875,0.24182142857142855,0.205875
43,1,1,0,8,20.617999999999984,20,95,116,111,27,25,22.386999999999983,1.1589999999999994,1.3419999999999992,5.611999999999996,20,6,2,13,106,6,3,27,2,0,14,3.5,6,L,0.21119811320754717,0.19316666666666665,0.44733333333333325,0.20785185185185184
43,1,2,0,9,13.41999999999999,17,69,62,65,61,1,16.469999999999988,3.903999999999997,0.305,1.2199999999999993,20,12,2,6,78,20,2,6,4,0.5,30,4.5,6,L,0.21115384615384614,0.19519999999999998,0.1525,0.20333333333333334
43,2,3,0,7,13.663999999999989,11,61,15,23,34,27,14.212999999999989,0.427,7.746999999999994,2.2569999999999983,14,3,8,6,64,3,30,8,6,0,22,5.5,6,L,0.222078125,0.14233333333333334,0.2582333333333333,0.28212499999999996
43,2,4,0,10,24.46099999999998,17,107,88,93,95,41,26.10799999999998,0.122,2.500999999999998,2.561999999999998,20,1,7,7,113,1,8,8,3,0.5,23,3.5,6,L,0.2310442477876106,0.122,0.3126249999999999,0.3202499999999999
43,3,5,0,3,15.249999999999988,12,73,30,29,33,36,16.469999999999988,10.125999999999992,0.9759999999999995,2.2569999999999983,17,10,4,6,78,38,5,8,5,1,60,5,6,L,0.21115384615384614,0.26647368421052625,0.19519999999999998,0.28212499999999996
43,3,6,0,5,19.885999999999985,20,91,47,37,42,40,22.874999999999982,1.0369999999999995,0.122,3.1109999999999975,20,6,2,11,103,6,2,16,5,1,60,5,6,L,0.22208737864077668,0.17283333333333334,0.061,0.19443749999999999
43,4,8,0,1,33.854999999999976,18,154,84,78,74,11,33.915999999999976,5.062999999999996,1.1589999999999994,2.0739999999999985,19,11,3,8,155,20,3,9,3,0.5,24,3.75,6,L,0.21881290322580643,0.25315,0.3863333333333333,0.23044444444444442
43,5,9,0,2,15.066999999999988,15,79,57,50,8,60,15.127999999999988,1.2199999999999993,9.759999999999993,0.5489999999999999,16,4,13,4,80,4,33,4,4,0.5,30,4.5,6,L,0.1891,0.30499999999999994,0.2957575757575757,0.13724999999999998
43,5,10,0,9,11.89499999999999,17,57,65,68,62,95,13.35899999999999,0.5489999999999999,1.2809999999999993,16.22599999999999,20,2,8,15,64,2,10,57,4,0.5,27,3.75,6,L,0.208734375,0.27449999999999997,0.1281,0.2846666666666666
44,1,1,0,4,30.255999999999975,15,141,99,102,101,98,32.51299999999998,0.061,1.8299999999999987,0.244,20,1,9,1,149,1,12,1,2,1,24,2,6,L,0.21820805369127516,0.061,0.1525,0.244
44,1,2,0,5,25.07099999999998,18,111,47,40,19,43,26.47399999999998,4.940999999999996,3.781999999999997,1.7079999999999989,20,13,9,5,119,17,17,6,5,0.5,36,5.25,6,L,0.2224705882352941,0.29064705882352937,0.22247058823529411,0.2846666666666666
44,2,3,0,7,7.8689999999999936,12,40,15,16,22,23,8.417999999999994,0.6099999999999999,0.6099999999999999,0.122,14,3,2,1,42,3,2,1,6,1,72,6,6,L,0.20042857142857143,0.20333333333333334,0.30499999999999994,0.122
44,2,4,0,10,23.66799999999998,20,124,93,89,1,55,27.510999999999978,10.979999999999992,0.8539999999999996,0.7929999999999997,20,17,2,5,140,39,2,5,3,0,16,4,6,L,0.19650714285714285,0.2815384615384615,0.42699999999999994,0.1586
44,3,5,0,7,3.0499999999999976,4,14,21,22,14,20,3.1109999999999975,0.061,1.2199999999999993,0.061,5,1,2,1,15,1,5,1,6,1,72,6,6,L,0.20739999999999997,0.061,0.244,0.061
44,3,6,0,8,37.20999999999997,16,158,2,116,115,114,41.78499999999997,0.122,0.061,0.183,20,1,1,1,179,1,1,1,2,0.5,18,3,6,L,0.2334357541899441,0.122,0.061,0.183
44,4,8,0,6,26.29099999999998,16,130,7,12,1,43,26.90099999999998,0.8539999999999996,3.9649999999999967,10.796999999999992,20,2,8,12,134,3,15,49,6,0.5,41,5.75,6,L,0.20075373134328356,0.2846666666666667,0.2643333333333333,0.2203469387755102
44,5,9,0,3,21.227999999999984,16,109,27,35,34,118,21.288999999999984,0.7319999999999998,5.184999999999996,1.2199999999999993,17,3,11,3,110,4,31,5,5,0.5,32,4.25,6,L,0.19353636363636362,0.183,0.167258064516129,0.2439999999999999
44,5,10,0,5,40.86999999999997,19,167,40,47,45,39,42.15099999999997,0.305,1.463999999999999,1.7689999999999988,20,1,8,5,172,1,11,5,5,1,60,5,6,L,0.24506395348837207,0.305,0.1330909090909091,0.3538
45,1,1,0,2,22.752999999999982,19,117,32,51,34,8,38.61299999999997,3.720999999999997,1.7079999999999989,1.0979999999999994,20,15,9,4,179,18,10,5,4,0,20,5,6,L,0.21571508379888266,0.20672222222222222,0.1708,0.2196
45,1,2,0,5,8.173999999999994,4,31,38,39,42,44,10.003999999999992,0.061,1.8909999999999987,0.183,8,1,2,1,40,1,9,1,5,1,60,5,6,L,0.2501,0.061,0.2101111111111111,0.183
45,2,3,0,5,4.574999999999997,4,25,48,45,42,46,5.001999999999996,0.061,0.6099999999999999,0.061,6,1,2,1,28,1,5,1,5,1,60,5,6,L,0.17864285714285713,0.061,0.122,0.061
45,2,4,0,1,51.05699999999996,15,226,70,75,78,72,58.92599999999995,0.7929999999999997,0.183,1.2809999999999993,20,3,3,5,249,3,3,5,3,0,14,3.5,6,L,0.23665060240963853,0.2643333333333333,0.061,0.2562
45,3,5,0,7,29.218999999999976,15,116,16,20,19,31,29.279999999999976,8.234999999999994,4.391999999999997,1.4029999999999991,16,15,12,6,117,43,19,7,6,0.5,41,5.75,6,L,0.2502564102564102,0.19151162790697673,0.2311578947368421,0.2004285714285714
45,3,6,0,9,26.96199999999998,14,114,68,61,66,45,27.08399999999998,0.183,5.306999999999996,2.622999999999998,15,1,10,8,115,1,24,13,4,0.5,29,4.25,6,L,0.23551304347826085,0.183,0.221125,0.20176923076923076
45,4,7,0,5,14.029999999999989,12,64,45,47,48,84,14.456999999999988,0.5489999999999999,0.366,4.391999999999997,15,3,1,5,67,4,1,16,5,0.5,33,4.5,6,L,0.21577611940298505,0.13724999999999998,0.366,0.27449999999999997
45,4,8,0,2,32.14699999999998,18,165,60,57,51,33,33.427999999999976,0.122,4.574999999999997,1.463999999999999,20,1,13,6,172,1,23,8,4,0.5,29,4.25,6,L,0.19434883720930232,0.122,0.19891304347826086,0.183
45,5,9,0,9,18.055999999999987,16,91,14,70,80,71,53.679999999999964,0.6709999999999998,0.366,1.585999999999999,20,4,2,5,235,4,2,5,4,0,17,4.25,6,L,0.2284255319148936,0.16775,0.183,0.3172
45,5,10,0,4,24.33899999999998,15,102,102,101,99,12,24.58299999999998,0.9149999999999996,0.061,7.502999999999994,16,5,1,11,103,6,1,30,2,0.5,18,3,6,L,0.23866990291262133,0.1525,0.061,0.2501
46,1,1,0,1,9.698999999999993,11,50,78,16,84,43,17.323999999999987,1.2199999999999993,0.7929999999999997,1.0979999999999994,20,5,4,5,94,7,4,7,3,0,17,4.25,6,L,0.18429787234042552,0.1742857142857143,0.19824999999999998,0.15685714285714283
46,1,2,0,8,22.264999999999983,20,113,109,117,119,112,25.00999999999998,0.244,0.5489999999999999,1.2199999999999993,20,2,3,8,121,2,3,9,2,1,24,2,6,L,0.20669421487603304,0.122,0.183,0.13555555555555554
46,2,3,0,5,11.650999999999991,16,58,42,37,45,1,12.62699999999999,1.4029999999999991,0.061,6.770999999999995,20,5,1,12,64,5,1,28,5,0.5,36,5.25,6,L,0.19729687499999998,0.28059999999999996,0.061,0.24182142857142852
46,2,4,0,3,13.23699999999999,16,64,28,20,31,17,15.005999999999988,10.064999999999992,2.744999999999998,0.7929999999999997,20,14,10,2,70,46,13,2,5,0,22,5.5,6,L,0.21437142857142855,0.21880434782608693,0.21115384615384614,0.39649999999999996
46,3,5,0,4,19.275999999999986,16,96,108,98,92,14,21.288999999999984,0.122,5.001999999999996,0.488,20,1,7,1,112,1,14,2,2,0,13,3.25,6,L,0.19008035714285712,0.122,0.3572857142857142,0.244
46,3,6,0,2,18.177999999999987,17,94,52,50,2,43,21.715999999999983,1.7689999999999988,11.284999999999991,4.818999999999996,20,4,17,11,108,5,45,14,4,0,19,4.75,6,L,0.20107407407407407,0.3538,0.25077777777777777,0.34421428571428564
46,4,7,0,7,20.983999999999984,19,97,17,15,14,88,21.105999999999984,5.916999999999995,7.990999999999993,0.6709999999999998,20,17,17,4,98,31,40,4,6,0.5,39,5.25,6,L,0.2153673469387755,0.1908709677419355,0.19977499999999998,0.16775
46,4,8,0,6,14.761999999999988,16,74,8,9,77,106,14.822999999999988,1.2809999999999993,9.576999999999993,14.090999999999989,17,2,12,11,75,3,40,51,6,0,17,4.25,6,L,0.19763999999999998,0.4269999999999998,0.23942499999999997,0.2762941176470588
46,5,9,0,8,22.081999999999983,16,108,117,119,116,31,26.16899999999998,0.305,3.659999999999997,1.8909999999999987,20,1,9,6,126,1,19,8,2,0.5,17,2.75,6,L,0.20769047619047618,0.305,0.1926315789473684,0.23637499999999992
46,5,10,0,5,14.517999999999988,14,72,48,39,47,104,15.554999999999987,2.0129999999999986,2.805999999999998,7.990999999999993,19,5,7,12,78,8,13,41,5,0.5,32,4.25,6,L,0.19942307692307693,0.251625,0.21584615384615383,0.19490243902439022
47,1,1,0,7,22.508999999999983,19,103,23,53,32,52,24.70499999999998,7.441999999999994,9.332999999999993,8.905999999999993,20,16,14,17,118,37,33,35,6,0,19,4.75,6,L,0.209364406779661,0.20113513513513512,0.2828181818181818,0.2544571428571428
47,1,2,0,8,22.874999999999982,16,115,114,113,117,118,23.78999999999998,0.366,0.7929999999999997,0.061,20,2,2,1,124,2,2,1,2,1,24,2,6,L,0.1918548387096774,0.183,0.39649999999999996,0.061
47,2,3,0,10,12.44399999999999,12,74,96,86,92,87,12.50499999999999,0.305,0.061,2.805999999999998,13,3,1,8,75,3,1,15,3,1,36,3,6,L,0.16673333333333332,0.10166666666666667,0.061,0.18706666666666666
47,2,4,0,5,16.28699999999999,15,80,60,73,59,78,32.51299999999998,0.7319999999999998,11.406999999999991,7.380999999999994,20,2,17,17,136,2,54,29,5,0,14,3.5,6,L,0.2390661764705882,0.366,0.21124074074074073,0.2545172413793103
47,3,5,0,3,21.959999999999983,20,96,65,109,1,33,27.815999999999978,10.613999999999992,4.391999999999997,0.122,20,16,13,2,116,42,19,2,5,0,17,4.25,6,L,0.23979310344827584,0.25271428571428567,0.2311578947368421,0.061
47,3,6,0,7,9.393999999999993,16,54,24,49,15,22,10.674999999999992,7.990999999999993,6.8319999999999945,0.061,20,13,12,1,58,36,23,1,6,0.5,40,5.5,6,L,0.18405172413793103,0.2219722222222222,0.2970434782608695,0.061
47,4,7,0,10,11.101999999999991,12,49,95,52,50,91,14.761999999999988,5.306999999999996,0.6099999999999999,0.122,19,10,1,1,64,24,1,2,3,0,14,3.5,6,L,0.23065624999999998,0.221125,0.6099999999999999,0.061
47,4,8,0,9,25.13199999999998,20,124,66,67,72,10,30.743999999999975,1.0369999999999995,0.7929999999999997,3.903999999999997,20,3,6,12,148,3,6,16,4,0.5,30,4.5,6,L,0.20772972972972972,0.34566666666666657,0.13216666666666665,0.244
47,5,9,0,5,28.425999999999977,19,116,18,59,77,17,32.02499999999998,9.576999999999993,7.258999999999994,7.807999999999994,20,16,16,16,138,40,28,34,5,0,19,4.75,6,L,0.23206521739130434,0.23942499999999997,0.25925,0.22964705882352937
47,5,10,0,8,15.798999999999987,14,69,117,118,1,28,17.140999999999988,2.500999999999998,44.529999999999966,0.244,19,10,14,2,76,13,192,2,2,0,15,3.75,6,L,0.2255394736842105,0.19238461538461538,0.2319270833333333,0.122
48,1,1,0,4,25.55899999999998,16,121,108,101,97,72,26.16899999999998,0.183,2.3789999999999982,3.842999999999997,19,1,8,9,125,1,10,16,2,0.5,16,2.5,6,L,0.20935199999999998,0.183,0.2379,0.2401875
48,1,2,0,2,34.403999999999975,16,142,53,57,36,5,34.708999999999975,3.903999999999997,3.598999999999997,2.744999999999998,18,7,13,10,146,14,21,13,4,0,19,4.75,6,L,0.23773287671232876,0.2788571428571428,0.17138095238095236,0.21115384615384614
48,2,3,0,3,15.371999999999987,16,74,3,4,33,25,33.610999999999976,1.585999999999999,0.9149999999999996,0.183,20,6,3,1,143,7,3,1,5,0,22,5.5,6,L,0.23504195804195802,0.2265714285714285,0.305,0.183
48,2,4,0,5,36.17299999999997,19,159,38,42,44,24,36.72199999999997,2.439999999999998,0.5489999999999999,3.4159999999999973,20,11,3,9,162,15,3,16,5,0.5,36,5.25,6,L,0.226679012345679,0.16266666666666665,0.183,0.2135
48,3,5,0,4,10.552999999999992,14,49,102,107,105,103,10.857999999999992,0.8539999999999996,1.8299999999999987,0.9149999999999996,17,4,6,7,53,5,7,8,2,1,24,2,6,L,0.20486792452830188,0.1708,0.26142857142857134,0.114375
48,3,6,0,3,17.018999999999988,20,78,36,57,15,28,23.057999999999982,30.682999999999975,0.5489999999999999,0.061,20,19,3,1,103,122,3,1,5,0,20,5,6,L,0.22386407766990288,0.25149999999999995,0.183,0.061
48,4,7,0,5,10.064999999999992,19,47,41,42,43,48,13.11499999999999,0.366,0.488,2.0129999999999986,20,3,3,5,60,3,3,8,5,1,60,5,6,L,0.21858333333333332,0.122,0.16266666666666665,0.251625
48,4,8,0,7,16.835999999999988,15,74,16,19,18,27,16.896999999999988,2.805999999999998,1.0979999999999994,8.112999999999994,16,7,4,14,75,11,4,38,6,0.5,41,5.75,6,L,0.22529333333333332,0.25509090909090903,0.27449999999999997,0.21349999999999997
48,5,9,0,7,23.78999999999998,17,109,15,20,16,32,24.03399999999998,8.905999999999993,10.613999999999992,0.122,19,17,17,1,111,27,55,1,6,0.5,41,5.75,6,L,0.2165225225225225,0.32985185185185173,0.19298181818181817,0.122
48,5,10,0,5,11.284999999999991,17,61,47,43,45,46,11.95599999999999,2.683999999999998,2.0739999999999985,0.366,20,10,6,2,65,10,8,2,5,1,60,5,6,L,0.18393846153846152,0.26839999999999997,0.25925,0.183
49,1,1,0,4,24.09499999999998,15,113,97,102,101,60,24.15599999999998,4.452999999999997,0.061,4.452999999999997,16,12,1,10,114,19,1,13,2,0.5,16,2.5,6,L,0.21189473684210525,0.23436842105263156,0.061,0.3425384615384615
49,2,3,0,1,14.578999999999988,15,57,79,83,84,14,14.883999999999988,2.3179999999999983,2.439999999999998,6.282999999999995,16,5,5,9,58,5,6,25,3,0.5,24,3.75,6,L,0.2566206896551724,0.4635999999999999,0.4066666666666665,0.25132
49,2,4,0,9,17.872999999999987,17,85,70,71,66,65,20.861999999999984,1.524999999999999,0.7929999999999997,0.8539999999999996,20,7,4,2,99,7,4,2,4,1,48,4,6,L,0.2107272727272727,0.21785714285714286,0.19824999999999998,0.42699999999999994
49,3,5,0,5,15.310999999999988,10,67,39,37,40,45,15.554999999999987,2.683999999999998,0.7319999999999998,1.8299999999999987,13,8,2,8,70,9,2,11,5,1,60,5,6,L,0.2222142857142857,0.2982222222222222,0.36599999999999994,0.16636363636363635
49,3,6,0,3,13.17599999999999,18,69,60,53,5,51,27.876999999999978,3.476999999999997,6.221999999999995,0.122,20,14,17,1,133,17,26,1,5,0.5,30,4.5,6,L,0.20960150375939848,0.20452941176470585,0.2393076923076923,0.122
49,4,7,0,6,17.079999999999988,19,82,4,6,11,58,17.140999999999988,13.846999999999989,0.061,1.1589999999999994,20,18,1,6,83,66,1,6,6,0.5,40,5.5,6,L,0.2065180722891566,0.2098030303030303,0.061,0.19316666666666665
49,4,8,0,1,32.20799999999998,19,156,79,17,21,24,32.87899999999998,11.162999999999991,0.305,0.061,20,15,2,1,159,46,2,1,3,0.5,39,5.25,6,L,0.20678616352201257,0.24267391304347824,0.1525,0.061
49,5,9,0,7,14.700999999999988,16,73,21,24,116,64,14.761999999999988,18.848999999999986,23.85099999999998,0.244,17,17,16,1,74,90,88,1,6,0,18,4.5,6,L,0.19948648648648648,0.20943333333333333,0.27103409090909086,0.244
49,5,10,0,4,24.27799999999998,16,104,107,29,32,104,25.86399999999998,29.462999999999976,0.061,0.061,20,15,1,1,110,139,1,1,2,0,14,3.5,6,L,0.2351272727272727,0.2119640287769784,0.061,0.061
50,1,1,0,2,19.153999999999986,20,90,56,54,55,2,19.397999999999985,2.805999999999998,6.404999999999995,3.781999999999997,20,7,14,11,91,13,26,14,4,0.5,30,4.5,6,L,0.21316483516483514,0.21584615384615383,0.24634615384615383,0.27014285714285713
50,1,2,0,1,18.726999999999986,16,93,81,78,74,26,19.885999999999985,1.524999999999999,2.1349999999999985,2.1349999999999985,20,5,8,3,100,6,9,4,3,0.5,23,3.5,6,L,0.19885999999999998,0.25416666666666665,0.2372222222222222,0.5337499999999998
50,2,3,0,10,28.913999999999977,16,114,92,94,89,86,29.706999999999976,1.0369999999999995,0.9759999999999995,1.463999999999999,18,7,5,3,116,10,6,5,3,1,36,3,6,L,0.2560948275862069,0.1037,0.16266666666666665,0.2928
50,2,4,0,6,16.957999999999988,16,80,2,5,9,68,17.079999999999988,2.3789999999999982,4.635999999999997,4.391999999999997,18,7,9,9,82,9,13,15,6,0.5,40,5.5,6,L,0.20829268292682926,0.2643333333333333,0.35661538461538456,0.29279999999999995
50,3,5,0,1,10.796999999999992,16,56,83,82,49,38,12.44399999999999,0.6709999999999998,14.029999999999989,3.9649999999999967,20,1,13,12,66,2,53,19,3,0,15,3.75,6,L,0.18854545454545454,0.3355,0.2647169811320754,0.20868421052631578
50,3,6,0,3,34.159999999999975,19,132,28,33,31,25,34.525999999999975,0.6709999999999998,0.427,3.2939999999999974,20,3,3,12,134,3,3,20,5,1,60,5,6,L,0.2576567164179104,0.22366666666666665,0.14233333333333334,0.16469999999999999
50,4,8,0,8,32.14699999999998,19,155,110,113,49,77,33.793999999999976,2.2569999999999983,5.489999999999996,1.8299999999999987,20,8,11,8,163,9,17,11,2,0,11,2.75,6,L,0.2073251533742331,0.2507777777777777,0.32294117647058823,0.16636363636363635
50,5,9,0,4,13.846999999999989,14,70,100,98,99,105,14.761999999999988,0.6099999999999999,2.744999999999998,3.4159999999999973,17,4,9,9,73,5,12,13,2,1,24,2,6,L,0.20221917808219178,0.122,0.22875,0.26276923076923075
50,5,10,0,2,25.00999999999998,16,116,49,58,51,43,25.31499999999998,2.9279999999999977,1.524999999999999,2.0739999999999985,18,10,5,5,118,14,7,6,4,0.5,29,4.25,6,L,0.21453389830508474,0.20914285714285713,0.21785714285714286,0.3456666666666666
51,1,1,0,5,22.447999999999983,16,97,44,6,10,42,25.37599999999998,5.550999999999996,0.366,0.8539999999999996,20,11,3,4,109,20,3,8,5,0,22,5.5,6,L,0.23280733944954127,0.27754999999999996,0.122,0.10675
51,1,2,0,3,26.41299999999998,18,124,35,26,21,16,27.937999999999978,1.0979999999999994,2.0739999999999985,4.086999999999997,20,6,7,10,130,7,9,16,5,0,22,5.5,6,L,0.2149076923076923,0.15685714285714286,0.23044444444444442,0.2554375
51,2,3,0,10,14.761999999999988,16,65,87,96,94,72,16.04299999999999,3.842999999999997,1.3419999999999992,0.305,20,12,7,2,70,19,7,2,3,0.5,22,3.25,6,L,0.22918571428571427,0.20226315789473684,0.1917142857142857,0.1525
51,2,4,0,2,28.181999999999977,20,134,60,51,50,37,29.584999999999976,0.6709999999999998,4.940999999999996,2.3179999999999983,20,2,15,5,139,2,21,6,4,0.5,29,4.25,6,L,0.21284172661870504,0.3354999999999999,0.23528571428571426,0.38633333333333325
51,3,5,0,6,14.029999999999989,16,75,6,2,10,7,15.249999999999988,5.184999999999996,1.8909999999999987,2.1349999999999985,20,16,8,6,83,30,10,6,6,1,72,6,6,L,0.18373493975903613,0.1728333333333333,0.1891,0.3558333333333332
51,3,6,0,8,38.85699999999997,17,178,115,114,112,113,41.05299999999997,0.6709999999999998,2.500999999999998,0.305,20,3,6,2,187,3,7,2,2,1,24,2,6,L,0.21953475935828876,0.22366666666666665,0.3572857142857142,0.1525
51,4,8,0,2,29.218999999999976,14,149,58,50,60,18,29.523999999999976,2.0129999999999986,5.489999999999996,5.001999999999996,15,7,8,9,150,9,22,23,4,0.5,30,4.5,6,L,0.19682666666666665,0.22366666666666662,0.24954545454545451,0.21747826086956518
51,5,9,0,3,30.255999999999975,14,133,31,28,101,69,30.499999999999975,4.025999999999997,3.3549999999999973,10.125999999999992,17,9,6,13,136,12,11,45,5,0,16,4,6,L,0.22426470588235292,0.3354999999999999,0.305,0.2250222222222222
51,5,10,0,8,26.90099999999998,16,136,112,113,111,15,27.02299999999998,2.500999999999998,2.561999999999998,3.4159999999999973,17,7,9,13,137,8,14,17,2,0.5,18,3,6,L,0.19724817518248175,0.31262499999999993,0.183,0.20094117647058823
52,1,1,0,1,11.77299999999999,12,55,82,13,73,14,13.663999999999989,32.32999999999998,0.061,0.122,18,11,1,1,62,121,1,1,3,0,18,4.5,6,L,0.22038709677419352,0.26719008264462807,0.061,0.122
52,1,2,0,4,17.872999999999987,19,87,106,99,41,107,17.933999999999987,1.585999999999999,1.2809999999999993,0.9759999999999995,20,3,6,3,88,3,6,3,2,0.5,17,2.75,6,L,0.20379545454545453,0.5286666666666665,0.2135,0.32533333333333325
52,2,3,0,6,19.214999999999986,11,84,11,8,6,4,19.702999999999985,0.183,0.8539999999999996,7.075999999999994,16,1,3,9,89,1,4,29,6,1,72,6,6,L,0.2213820224719101,0.183,0.21349999999999997,0.24399999999999997
52,2,4,0,8,16.469999999999988,20,79,119,116,118,112,17.689999999999987,0.7929999999999997,2.439999999999998,0.6099999999999999,20,5,6,3,87,5,7,3,2,1,24,2,6,L,0.2033333333333333,0.1586,0.3485714285714285,0.20333333333333334
52,3,5,0,7,54.533999999999956,15,234,20,14,15,59,54.716999999999956,0.488,5.184999999999996,4.879999999999996,16,3,14,9,235,3,23,18,6,0.5,40,5.5,6,L,0.2328382978723404,0.16266666666666665,0.22543478260869565,0.2711111111111111
52,3,6,0,10,13.54199999999999,15,59,85,94,87,4,14.578999999999988,0.488,7.502999999999994,3.1719999999999975,20,2,12,10,66,3,29,18,3,0.5,24,3.75,6,L,0.22089393939393936,0.16266666666666665,0.25872413793103444,0.17622222222222222
52,4,7,0,9,11.467999999999991,15,50,62,61,6,119,11.71199999999999,4.086999999999997,11.83399999999999,4.6969999999999965,18,11,14,12,53,15,52,24,4,0,16,4,6,L,0.22098113207547168,0.2724666666666666,0.22757692307692307,0.19570833333333332
52,4,8,0,2,21.593999999999983,17,111,53,56,24,15,21.959999999999983,1.524999999999999,7.075999999999994,0.7319999999999998,20,6,12,3,115,6,24,3,4,0,20,5,6,L,0.1909565217391304,0.25416666666666665,0.2948333333333333,0.244
52,5,9,0,7,17.262999999999987,14,75,13,24,110,86,18.909999999999986,0.488,5.428999999999996,0.6709999999999998,20,3,13,2,83,3,22,3,6,0,17,4.25,6,L,0.22783132530120478,0.16266666666666665,0.24677272727272725,0.22366666666666665
52,5,10,0,4,25.55899999999998,20,121,98,104,102,30,31.414999999999974,0.9149999999999996,0.9759999999999995,2.2569999999999983,20,8,4,11,146,9,4,13,2,0.5,17,2.75,6,L,0.2151712328767123,0.10166666666666667,0.24399999999999994,0.17361538461538462
53,1,1,0,3,10.430999999999992,11,37,29,31,33,67,12.62699999999999,0.244,1.463999999999999,4.147999999999997,18,2,5,8,50,3,8,13,5,0.5,34,4.75,6,L,0.25254,0.08133333333333333,0.183,0.31907692307692304
53,1,2,0,5,26.96199999999998,20,129,46,53,40,83,29.828999999999976,2.683999999999998,5.7949999999999955,2.9279999999999977,20,8,14,9,142,10,22,14,5,0,17,4.25,6,L,0.2100633802816901,0.26839999999999997,0.26340909090909087,0.2091428571428571
53,2,3,0,1,19.458999999999985,16,88,77,53,60,15,19.519999999999985,6.099999999999995,5.7949999999999955,0.122,17,14,12,1,89,25,19,1,3,0,17,4.25,6,L,0.2193258426966292,0.24399999999999997,0.305,0.122
53,2,4,0,10,8.844999999999994,18,39,96,2,85,95,12.74899999999999,10.125999999999992,0.061,0.6099999999999999,20,17,1,4,61,50,1,5,3,0.5,24,3.75,6,L,0.209,0.20251999999999998,0.061,0.122
53,3,5,0,8,13.05399999999999,14,61,113,120,116,4,22.142999999999983,1.4029999999999991,1.9519999999999986,0.9149999999999996,20,6,5,2,95,6,7,2,2,0.5,18,3,6,L,0.23308421052631575,0.2338333333333333,0.27885714285714286,0.4575
53,3,6,0,7,15.554999999999987,15,83,24,15,16,22,20.373999999999985,0.6099999999999999,0.8539999999999996,0.061,20,3,4,1,110,3,4,1,6,1,72,6,6,L,0.1852181818181818,0.20333333333333334,0.2135,0.061
53,4,7,0,7,4.6969999999999965,4,21,14,19,21,22,5.733999999999996,0.061,0.7929999999999997,0.122,7,1,2,1,25,1,2,1,6,1,72,6,6,L,0.22935999999999998,0.061,0.39649999999999985,0.122
53,4,8,0,3,58.92599999999995,18,243,36,29,4,9,59.90199999999995,0.305,10.247999999999992,0.9149999999999996,20,3,17,4,248,4,47,4,5,0,22,5.5,6,L,0.24154032258064514,0.07625,0.21804255319148935,0.22875
53,5,9,0,3,39.58899999999997,14,172,33,29,27,9,40.01599999999997,4.330999999999997,1.3419999999999992,1.4029999999999991,17,7,6,3,175,11,6,4,5,0.5,36,5.25,6,L,0.2286628571428571,0.3937272727272726,0.22366666666666665,0.35074999999999995
53,5,10,0,5,25.86399999999998,20,125,44,41,43,24,25.92499999999998,3.0499999999999976,4.879999999999996,8.844999999999994,20,7,11,16,126,9,18,41,5,0.5,36,5.25,6,L,0.20575396825396822,0.33888888888888885,0.2711111111111111,0.21573170731707317
54,1,1,0,8,33.183999999999976,16,142,115,57,24,119,34.403999999999975,5.550999999999996,2.3179999999999983,0.488,20,13,10,3,150,25,13,3,2,0,14,3.5,6,L,0.22935999999999998,0.22204,0.1783076923076923,0.16266666666666665
54,1,2,0,1,21.715999999999983,16,104,83,75,73,63,23.72899999999998,0.9149999999999996,2.3179999999999983,1.1589999999999994,20,5,9,4,111,5,11,5,3,0.5,22,3.25,6,L,0.21377477477477475,0.183,0.21072727272727268,0.23179999999999995
54,2,3,0,3,11.528999999999991,11,57,33,25,9,32,13.48099999999999,0.427,2.3179999999999983,3.903999999999997,15,2,8,7,62,2,11,15,5,0.5,36,5.25,6,L,0.21743548387096773,0.2135,0.2107272727272727,0.26026666666666665
54,2,4,0,5,17.445999999999987,18,88,41,42,43,37,18.848999999999986,1.2809999999999993,7.441999999999994,1.3419999999999992,20,9,15,4,92,10,34,4,5,1,60,5,6,L,0.2048804347826087,0.1281,0.21888235294117644,0.33549999999999996
54,3,5,0,1,26.90099999999998,20,146,79,83,74,82,29.645999999999976,0.6099999999999999,1.2199999999999993,0.427,20,3,4,3,163,3,5,3,3,1,36,3,6,L,0.1818773006134969,0.20333333333333334,0.244,0.14233333333333334
54,4,7,0,6,12.13899999999999,16,69,1,3,6,54,13.11499999999999,0.5489999999999999,4.940999999999996,5.062999999999996,20,4,13,8,73,4,28,14,6,0.5,40,5.5,6,L,0.17965753424657532,0.13724999999999998,0.1764642857142857,0.36164285714285704
54,4,8,0,1,32.87899999999998,19,138,13,113,75,30,59.77999999999996,0.427,0.122,0.427,20,2,2,3,265,2,2,3,3,0,16,4,6,L,0.22558490566037734,0.2135,0.061,0.14233333333333334
54,5,9,0,5,15.920999999999987,16,74,46,39,44,45,17.201999999999988,1.524999999999999,0.5489999999999999,0.244,20,5,4,2,82,7,4,2,5,1,60,5,6,L,0.20978048780487804,0.21785714285714286,0.13724999999999998,0.122
54,5,10,0,10,18.604999999999986,18,93,2,88,119,118,40.44299999999997,0.305,0.183,0.7319999999999998,20,4,1,5,173,4,1,5,3,0,13,3.25,6,L,0.23377456647398842,0.07625,0.183,0.1464
55,1,1,0,5,4.879999999999996,4,25,41,38,42,48,6.892999999999995,1.7079999999999989,0.122,0.061,7,3,1,1,29,9,1,1,5,1,60,5,6,L,0.23768965517241375,0.18977777777777777,0.122,0.061
55,1,2,0,8,36.96599999999997,17,163,119,109,57,116,38.61299999999997,0.183,3.476999999999997,0.5489999999999999,20,1,8,5,169,1,12,5,2,0.5,16,2.5,6,L,0.2284792899408284,0.183,0.28974999999999995,0.1098
55,2,3,0,2,19.946999999999985,18,97,59,54,55,57,24.94899999999998,2.683999999999998,0.427,0.061,20,9,2,1,112,10,2,1,4,1,48,4,6,L,0.22275892857142854,0.26839999999999997,0.2135,0.061
55,2,4,0,1,19.458999999999985,18,83,79,75,80,73,19.946999999999985,0.061,2.805999999999998,0.8539999999999996,20,1,12,4,85,1,19,5,3,1,36,3,6,L,0.2346705882352941,0.061,0.14768421052631578,0.1708
55,3,5,0,3,8.173999999999994,12,48,26,36,120,16,8.783999999999994,5.367999999999996,0.244,0.9149999999999996,16,10,2,2,52,24,2,3,5,0,18,4.5,6,L,0.16892307692307693,0.22366666666666665,0.122,0.305
55,3,6,0,9,28.120999999999977,18,115,2,64,61,43,40.25999999999997,0.6099999999999999,0.122,0.5489999999999999,20,3,1,3,161,3,1,3,4,0,19,4.75,6,L,0.2500621118012422,0.20333333333333334,0.122,0.183
55,4,7,0,5,12.74899999999999,16,68,11,40,110,37,27.998999999999977,0.061,0.061,3.659999999999997,20,1,1,7,126,1,1,14,5,0,18,4.5,6,L,0.2222142857142857,0.061,0.061,0.2614285714285714
55,4,8,0,1,10.369999999999992,18,56,76,22,80,14,14.45699999999999,20.312999999999985,0.061,6.038999999999995,20,19,1,12,72,88,1,21,3,0,18,4.5,6,L,0.20079166666666665,0.23082954545454543,0.061,0.28757142857142853
55,5,9,0,6,8.844999999999994,12,54,11,67,1,10,10.613999999999992,8.600999999999994,0.305,0.9149999999999996,17,10,2,6,61,41,3,10,6,0.5,40,5.5,6,L,0.174,0.20978048780487804,0.10166666666666667,0.0915
