Subject,Round,Phase,afterbreak,Schema,Schema_RT,Schema_OB,Schema_AS,Cho_1,Cho_2,Cho_3,Cho_4,RT_1,RT_2,RT_3,RT_4,OB_1,OB_2,OB_3,OB_4,AS_1,AS_2,AS_3,AS_4,schema_payoff,AC,performance,Cho_0,RT_0,OB_0,AS_0,payoff,breakR,type,dwellmean_1,dwellmean_2,dwellmean_3,dwellmean_4
1,1,1,0,0,0,0,0,77,79,12,1,4.818999999999996,0.6099999999999999,2.0129999999999986,0.9149999999999996,14,4,7,2,24,4,7,2,0,0,18,57,17.933999999999987,18,84,4.5,6,L,0.2106759259259259,0.1525,0.2875714285714286,0.45749999999999996
1,1,2,0,0,0,0,0,96,47,41,95,0.6099999999999999,0.6709999999999998,0.244,1.3419999999999992,4,2,4,6,5,2,4,7,0,0,16,88,58.68199999999995,20,276,4,6,L,0.2110035587188612,0.3354999999999999,0.061,0.1917142857142857
1,2,3,0,0,0,0,0,116,35,30,8,2.439999999999998,0.6099999999999999,1.463999999999999,0.366,10,5,8,2,10,5,8,2,0,0,18,27,18.055999999999987,18,83,4.5,6,L,0.22038709677419352,0.122,0.183,0.183
1,2,4,0,0,0,0,0,100,13,16,88,0.427,5.855999999999995,24.46099999999998,3.9649999999999967,3,12,16,9,3,24,100,11,0,0,17,107,6.709999999999995,14,31,4.25,6,L,0.20991176470588233,0.24399999999999997,0.24460999999999997,0.3604545454545454
1,3,5,0,0,0,0,0,38,4,75,12,4.330999999999997,0.8539999999999996,0.5489999999999999,0.305,17,6,5,3,29,7,6,3,0,0,20,51,5.184999999999996,17,33,5,6,L,0.15348387096774194,0.122,0.0915,0.10166666666666667
1,3,6,0,0,0,0,0,100,65,31,16,0.7929999999999997,0.366,3.1719999999999975,0.061,3,1,13,1,3,1,17,1,0,0,17,97,12.26099999999999,16,53,4.25,6,L,0.23310714285714285,0.366,0.18658823529411764,0.061
1,4,7,0,0,0,0,0,76,102,100,52,1.3419999999999992,0.6709999999999998,0.305,0.244,4,5,1,2,4,5,1,2,0,0,11,12,42.33399999999997,18,183,2.75,6,L,0.23356149732620318,0.13419999999999999,0.305,0.122
1,4,8,0,0,0,0,0,14,24,19,30,3.476999999999997,0.061,7.746999999999994,1.7689999999999988,12,1,17,7,20,1,39,10,0,0.5,41,92,10.674999999999992,18,55,5.75,6,L,0.18869333333333332,0.061,0.19864102564102565,0.1769
1,5,9,0,0,0,0,0,79,101,11,8,5.7339999999999955,2.561999999999998,0.6099999999999999,1.524999999999999,15,13,2,10,26,14,3,10,0,0,17,2,4.208999999999997,12,19,4.25,6,L,0.22095555555555554,0.183,0.20333333333333334,0.1525
1,5,10,0,0,0,0,0,43,40,86,96,0.244,0.122,3.476999999999997,1.2809999999999993,1,2,9,7,1,2,12,8,0,0,16,87,12.87099999999999,18,63,4,6,L,0.20492187499999998,0.061,0.28974999999999995,0.160125
2,1,1,0,0,0,0,0,31,8,65,5,2.0739999999999985,4.818999999999996,0.183,1.1589999999999994,7,13,1,7,8,25,1,10,0,0,21,85,18.848999999999986,17,86,5.25,6,L,0.2225851063829787,0.19276,0.183,0.1159
2,1,2,0,0,0,0,0,47,102,97,57,0.5489999999999999,0.5489999999999999,1.585999999999999,0.427,1,3,6,3,1,3,6,3,0,0,13,74,31.475999999999974,20,151,3.25,6,L,0.2106907894736842,0.183,0.2643333333333333,0.14233333333333334
2,2,3,0,0,0,0,0,4,100,88,6,4.7579999999999965,14.761999999999988,0.5489999999999999,0.244,14,17,3,2,25,53,4,2,0,0,17,90,9.027999999999993,15,41,4.25,6,L,0.20887878787878789,0.2785283018867924,0.13724999999999998,0.122
2,2,4,0,0,0,0,0,14,120,19,33,4.940999999999996,13.785999999999989,0.488,0.6709999999999998,12,17,2,3,22,67,2,3,0,0,19,111,4.574999999999997,11,22,4.75,6,L,0.21627272727272726,0.2057611940298507,0.244,0.22366666666666665
2,3,5,0,0,0,0,0,41,24,22,14,0.7929999999999997,1.7079999999999989,3.598999999999997,4.7579999999999965,3,8,10,11,4,9,21,26,0,0.5,41,73,12.50499999999999,19,64,5.75,6,L,0.19555882352941176,0.18977777777777777,0.17138095238095238,0.183
2,3,6,0,0,0,0,0,2,12,50,90,4.086999999999997,5.428999999999996,1.7689999999999988,2.1959999999999984,11,15,9,9,16,31,11,12,0,0,19,4,9.393999999999993,12,34,4.75,6,L,0.26961999999999997,0.1751290322580645,0.1608181818181818,0.183
2,4,7,0,0,0,0,0,60,43,17,20,0.6709999999999998,0.122,2.744999999999998,0.7319999999999998,4,1,10,7,4,1,12,7,0,0,21,78,14.517999999999988,18,66,5.25,6,L,0.21698571428571425,0.122,0.22874999999999995,0.10457142857142857
2,4,8,0,0,0,0,0,9,69,70,87,1.9519999999999986,1.0369999999999995,0.061,1.524999999999999,8,5,1,8,8,6,1,8,0,0,17,12,18.116999999999987,17,100,4.25,6,L,0.18582407407407406,0.1728333333333333,0.061,0.190625
2,5,9,0,0,0,0,0,75,102,25,36,0.366,2.1959999999999984,1.0369999999999995,6.038999999999995,1,9,2,13,1,10,2,28,0,0,15,5,10.735999999999992,16,50,3.75,6,L,0.2176862745098039,0.2196,0.5184999999999998,0.21567857142857141
2,5,10,0,0,0,0,0,43,110,48,17,0.7319999999999998,16.713999999999988,60.57299999999995,69.84500000000062,3,13,13,13,3,58,265,299,0,0,18,46,10.796999999999992,19,56,4.5,6,L,0.19540677966101694,0.28817241379310343,0.228577358490566,0.23359531772575248
3,1,1,0,0,0,0,0,85,43,118,6,1.2199999999999993,6.953999999999994,0.244,0.488,5,17,2,1,5,39,2,1,0,0,16,89,14.212999999999989,19,72,4,6,L,0.20042857142857143,0.1783076923076923,0.122,0.488
3,1,2,0,0,0,0,0,75,84,21,20,0.9149999999999996,0.8539999999999996,1.2809999999999993,3.903999999999997,4,5,8,13,4,5,8,16,0,0,18,63,27.632999999999978,19,110,4.5,6,L,0.25042105263157893,0.1708,0.160125,0.244
3,2,3,0,0,0,0,0,117,61,91,115,1.7689999999999988,1.4029999999999991,4.6969999999999965,1.8299999999999987,8,7,12,7,9,9,20,10,0,0,11,113,9.027999999999993,16,39,2.75,6,L,0.22493749999999998,0.15588888888888888,0.23484999999999998,0.183
3,2,4,0,0,0,0,0,51,38,14,16,4.818999999999996,0.061,1.8299999999999987,0.122,18,1,6,1,22,1,7,1,0,0,21,17,34.037999999999975,19,149,5.25,6,L,0.22723391812865495,0.061,0.2614285714285714,0.122
3,3,5,0,0,0,0,0,88,43,37,44,68.56400000000048,0.183,0.061,0.183,19,1,1,1,301,1,1,1,0,0.5,33,4,10.613999999999992,17,50,4.5,6,L,0.22557834757834755,0.183,0.061,0.183
3,3,6,0,0,0,0,0,61,67,76,68,0.305,0.7929999999999997,1.2199999999999993,1.3419999999999992,2,3,4,5,2,3,5,5,0,0.5,27,75,10.430999999999992,18,53,3.75,6,L,0.19519999999999998,0.2643333333333333,0.244,0.26839999999999997
3,4,7,0,0,0,0,0,1,28,73,25,5.977999999999995,51.60599999999996,0.366,0.244,14,18,1,1,27,221,1,1,0,0,19,66,5.977999999999995,13,28,4.75,6,L,0.21738181818181818,0.23351131221719454,0.366,0.244
3,4,8,0,0,0,0,0,53,41,14,116,0.6709999999999998,0.7319999999999998,0.183,22.325999999999983,4,4,1,16,4,4,1,96,0,0,17,13,13.846999999999989,17,54,4.25,6,L,0.2503103448275862,0.183,0.183,0.23256249999999998
3,5,9,0,0,0,0,0,17,55,49,58,0.305,0.427,1.1589999999999994,0.427,2,2,5,1,2,2,5,1,0,0.5,30,54,24.03399999999998,19,119,4.5,6,L,0.2011487603305785,0.2135,0.2318,0.427
3,5,10,0,0,0,0,0,6,114,4,3,1.7079999999999989,17.079999999999988,0.366,0.6709999999999998,9,17,2,5,11,78,2,5,0,0.5,38,65,16.10399999999999,19,72,5,6,L,0.2146024096385542,0.21897435897435896,0.183,0.13419999999999999
4,1,1,0,0,0,0,0,99,16,103,87,0.061,0.122,0.183,0.244,1,1,1,1,1,1,1,1,0,0,13,107,76.67700000000141,20,339,3.25,6,L,0.22569999999999998,0.122,0.183,0.244
4,1,2,0,0,0,0,0,51,31,28,33,2.3179999999999983,5.977999999999995,1.2199999999999993,0.9149999999999996,11,16,6,5,13,26,6,5,0,0.5,34,77,15.188999999999988,18,69,4.75,6,L,0.2135,0.2299230769230769,0.20333333333333334,0.183
4,2,3,0,0,0,0,0,29,1,120,25,0.5489999999999999,6.038999999999995,13.35899999999999,1.2199999999999993,2,15,17,5,2,22,65,6,0,0,18,88,13.05399999999999,19,72,4.5,6,L,0.18382432432432433,0.27449999999999997,0.20552307692307692,0.2033333333333333
4,2,4,0,0,0,0,0,75,64,41,21,0.183,0.488,0.366,0.122,1,1,1,2,1,1,1,2,0,0,18,42,50.50799999999996,20,241,4.5,6,L,0.20946694214876033,0.488,0.366,0.061
4,3,5,0,0,0,0,0,41,69,10,68,0.244,0.061,0.244,1.0979999999999994,3,1,2,5,3,1,2,5,0,0,19,2,16.28699999999999,18,72,4.75,6,L,0.22041333333333332,0.061,0.122,0.2196
4,3,6,0,0,0,0,0,25,23,33,18,0.183,0.5489999999999999,0.427,1.7079999999999989,3,1,2,8,3,1,2,10,0,0,22,54,14.822999999999988,17,66,5.5,6,L,0.2174782608695652,0.5489999999999999,0.2135,0.1708
4,4,7,0,0,0,0,0,92,16,21,51,8.051999999999994,1.0369999999999995,0.305,2.0129999999999986,16,4,2,6,39,4,2,7,0,0,19,14,1.8299999999999987,5,8,4.75,6,L,0.21025531914893617,0.25925,0.1525,0.28757142857142853
4,4,8,0,0,0,0,0,3,42,71,120,1.4029999999999991,0.061,0.366,0.8539999999999996,5,1,2,5,5,1,2,5,0,0,17,44,25.74199999999998,20,110,4.25,6,L,0.23604347826086955,0.061,0.183,0.1708
4,5,9,0,0,0,0,0,113,4,29,26,0.6099999999999999,4.879999999999996,1.7689999999999988,2.439999999999998,3,13,7,6,3,28,11,7,0,0,18,112,6.038999999999995,11,29,4.5,6,L,0.20778124999999997,0.1742857142857143,0.1608181818181818,0.34857142857142853
4,5,10,0,0,0,0,0,41,46,80,14,0.061,0.305,4.147999999999997,1.3419999999999992,1,2,11,6,1,2,16,6,0,0,19,19,11.650999999999991,17,62,4.75,6,L,0.1859047619047619,0.1525,0.25925,0.22366666666666665
5,1,1,0,0,0,0,0,59,11,85,7,1.3419999999999992,0.061,0.305,0.8539999999999996,8,1,2,3,8,1,2,3,0,0,19,95,27.327999999999978,19,131,4.75,6,L,0.20625899280575538,0.061,0.1525,0.2846666666666667
5,1,2,0,0,0,0,0,45,65,16,20,4.940999999999996,0.061,1.2199999999999993,2.805999999999998,14,1,6,10,22,1,6,14,0,0,21,46,31.719999999999974,19,121,5.25,6,L,0.2563706293706293,0.061,0.20333333333333334,0.20042857142857143
5,2,3,0,0,0,0,0,25,67,103,61,1.463999999999999,3.659999999999997,0.183,0.183,5,12,3,2,5,15,3,2,0,0,15,36,12.99299999999999,19,79,3.75,6,L,0.17210714285714285,0.24399999999999997,0.061,0.0915
5,2,4,0,0,0,0,0,113,48,43,111,0.122,0.7319999999999998,0.305,1.1589999999999994,2,2,3,4,2,2,3,5,0,0,14,79,12.80999999999999,20,71,3.5,6,L,0.17715068493150685,0.366,0.10166666666666667,0.2318
5,3,5,0,0,0,0,0,77,53,6,75,0.122,0.427,0.305,11.71199999999999,2,3,1,15,2,3,1,57,0,0,16,4,14.883999999999988,17,75,4,6,L,0.19488311688311688,0.14233333333333334,0.305,0.2054736842105263
5,3,6,0,0,0,0,0,110,42,94,48,0.5489999999999999,0.7319999999999998,0.9149999999999996,1.4029999999999991,4,3,3,9,4,3,3,10,0,0,15,20,13.846999999999989,17,59,3.75,6,L,0.2285079365079365,0.24399999999999997,0.30499999999999994,0.1403
5,4,7,0,0,0,0,0,16,96,15,17,0.366,8.295999999999994,5.306999999999996,2.439999999999998,1,14,13,9,1,29,18,9,0,0.5,39,95,24.82699999999998,20,124,5.25,6,L,0.20154399999999997,0.2860689655172413,0.2948333333333333,0.2711111111111111
5,4,8,0,0,0,0,0,2,42,76,43,0.9149999999999996,1.646999999999999,1.646999999999999,0.061,8,3,9,1,8,4,9,1,0,0,19,50,20.678999999999984,17,101,4.75,6,L,0.19811009174311925,0.41174999999999984,0.183,0.061
5,5,9,0,0,0,0,0,46,11,94,5,0.5489999999999999,0.9759999999999995,0.5489999999999999,2.3179999999999983,3,6,2,7,3,6,2,7,0,0,20,98,16.774999999999988,19,92,5,6,L,0.18235789473684208,0.16266666666666665,0.27449999999999997,0.33114285714285707
5,5,10,0,0,0,0,0,66,23,17,16,0.366,1.1589999999999994,1.463999999999999,2.683999999999998,3,4,6,10,3,5,7,13,0,0.5,40,61,14.700999999999988,15,60,5.5,6,L,0.23915873015873015,0.2318,0.20914285714285713,0.20646153846153842
6,1,1,0,0,0,0,0,73,69,9,45,0.061,0.305,1.9519999999999986,3.1109999999999975,1,1,7,11,1,1,8,13,0,0,18,115,35.684999999999974,20,144,4.5,6,L,0.24652413793103445,0.305,0.24399999999999997,0.2393076923076923
6,1,2,0,0,0,0,0,87,91,53,107,1.0979999999999994,1.2809999999999993,8.173999999999994,0.183,4,6,15,3,5,8,35,3,0,0,12,99,10.308999999999992,18,42,3,6,L,0.24270212765957444,0.160125,0.23354285714285714,0.061
6,2,3,0,0,0,0,0,59,52,34,33,0.427,1.0369999999999995,1.463999999999999,1.0369999999999995,3,3,6,4,3,4,6,4,0,0,18,95,12.32199999999999,17,59,4.5,6,L,0.2056290322580645,0.25925,0.24399999999999997,0.25925
6,2,4,0,0,0,0,0,21,20,17,73,4.391999999999997,0.7319999999999998,8.112999999999994,3.3549999999999973,16,1,15,10,25,1,34,15,0,0.5,39,80,6.770999999999995,15,38,5.25,6,L,0.17719047619047618,0.7319999999999998,0.2386176470588235,0.22366666666666665
6,3,5,0,0,0,0,0,15,21,70,41,1.585999999999999,0.122,0.305,0.305,10,2,3,3,10,2,3,3,0,0,21,13,7.502999999999994,17,46,5.25,6,L,0.1623035714285714,0.061,0.10166666666666667,0.10166666666666667
6,3,6,0,0,0,0,0,29,49,33,60,2.805999999999998,1.4029999999999991,0.061,3.781999999999997,8,6,1,13,12,7,1,22,0,0,18,4,11.101999999999991,16,60,4.5,6,L,0.19316666666666665,0.20042857142857137,0.061,0.1719090909090909
6,4,7,0,0,0,0,0,59,31,56,23,0.427,0.122,1.585999999999999,0.6709999999999998,3,1,8,4,3,1,8,4,0,0,19,98,23.118999999999982,19,113,4.75,6,L,0.20298275862068965,0.122,0.19824999999999998,0.16775
6,4,8,0,0,0,0,0,38,2,11,3,3.1109999999999975,1.2199999999999993,0.366,0.9759999999999995,9,5,2,7,12,5,2,8,0,0.5,41,46,10.979999999999992,15,49,5.75,6,L,0.23099999999999998,0.244,0.183,0.122
6,5,9,0,0,0,0,0,119,70,64,30,0.5489999999999999,0.488,0.488,1.585999999999999,6,2,4,6,6,2,4,6,0,0,15,69,19.275999999999986,20,101,3.75,6,L,0.18528037383177567,0.244,0.122,0.2643333333333333
6,5,10,0,0,0,0,0,3,1,98,108,4.6969999999999965,0.7929999999999997,30.865999999999975,0.8539999999999996,11,3,16,4,20,3,144,4,0,0,16,6,5.184999999999996,12,26,4,6,L,0.21482608695652172,0.2643333333333333,0.2143472222222222,0.2135
7,1,1,0,0,0,0,0,49,103,35,53,1.8909999999999987,0.6099999999999999,0.366,0.7319999999999998,7,4,1,3,7,4,1,4,0,0,15,7,28.059999999999977,20,119,3.75,6,L,0.23770634920634917,0.1525,0.366,0.183
7,1,2,0,0,0,0,0,43,40,61,118,0.6099999999999999,0.244,3.3549999999999973,0.061,4,3,10,1,5,3,14,1,0,0,16,65,28.608999999999977,19,125,4,6,L,0.22476153846153846,0.08133333333333333,0.23964285714285713,0.061
7,2,3,0,0,0,0,0,2,70,75,67,1.8299999999999987,13.54199999999999,0.9149999999999996,0.427,8,16,7,2,10,72,7,2,0,0,17,74,9.332999999999993,14,40,4.25,6,L,0.22326,0.18808333333333332,0.1307142857142857,0.2135
7,2,4,0,0,0,0,0,91,57,26,29,1.2809999999999993,0.5489999999999999,0.061,0.244,6,2,1,2,6,2,1,2,0,0,17,92,22.386999999999983,17,113,4.25,6,L,0.19889075630252098,0.27449999999999997,0.061,0.122
7,3,5,0,0,0,0,0,19,13,111,15,0.9759999999999995,4.574999999999997,0.6709999999999998,0.244,2,15,5,2,2,27,5,2,0,0.5,38,34,10.003999999999992,17,54,5,6,L,0.19607142857142856,0.16944444444444445,0.13419999999999999,0.122
7,3,6,0,0,0,0,0,42,107,73,40,0.061,0.6709999999999998,2.2569999999999983,0.366,1,5,9,4,1,5,10,4,0,0,15,100,32.32999999999998,20,148,3.75,6,L,0.21738926174496642,0.13419999999999999,0.22569999999999998,0.0915
7,4,7,0,0,0,0,0,43,40,22,18,0.488,2.3789999999999982,2.3179999999999983,0.9759999999999995,2,13,10,2,2,13,10,2,0,0,22,19,26.53499999999998,18,99,5.5,6,L,0.2675544554455445,0.183,0.23179999999999998,0.48799999999999993
7,4,8,0,0,0,0,0,12,35,28,83,3.842999999999997,3.476999999999997,1.4029999999999991,2.2569999999999983,15,13,6,10,21,18,6,10,0,0,19,26,15.005999999999988,17,67,4.75,6,L,0.2141931818181818,0.19316666666666665,0.23383333333333328,0.22569999999999998
7,5,9,0,0,0,0,0,19,53,18,103,0.9149999999999996,9.210999999999993,2.561999999999998,0.7319999999999998,3,16,13,6,3,47,18,6,0,0,18,49,8.112999999999994,14,40,4.5,6,L,0.20995348837209302,0.19597872340425532,0.14233333333333334,0.122
7,5,10,0,0,0,0,0,72,61,96,109,1.463999999999999,0.244,1.524999999999999,1.1589999999999994,7,2,8,6,8,2,9,7,0,0,13,36,8.112999999999994,15,42,3.25,6,L,0.19154,0.122,0.16944444444444445,0.16557142857142856
8,1,1,0,0,0,0,0,86,88,26,7,0.305,0.305,1.4029999999999991,3.2329999999999974,2,1,9,11,2,1,9,18,0,0,17,91,20.251999999999985,20,95,4.25,6,L,0.2119278350515464,0.305,0.15588888888888888,0.1796111111111111
8,1,2,0,0,0,0,0,16,14,13,105,1.585999999999999,1.9519999999999986,2.0129999999999986,0.8539999999999996,4,10,4,6,5,10,4,7,0,0.5,38,79,21.410999999999984,20,98,5,6,L,0.22327184466019415,0.19519999999999993,0.5032499999999999,0.122
8,2,3,0,0,0,0,0,112,48,60,47,0.5489999999999999,0.122,1.2199999999999993,0.366,3,1,7,2,3,1,7,3,0,0,16,8,32.939999999999976,20,162,4,6,L,0.20296363636363635,0.122,0.1742857142857143,0.122
8,2,4,0,0,0,0,0,96,30,68,21,44.224999999999966,0.244,0.488,0.6709999999999998,19,1,2,5,196,1,2,5,0,0,18,18,13.663999999999989,17,74,4.5,6,L,0.21440370370370368,0.244,0.244,0.13419999999999999
8,3,5,0,0,0,0,0,26,1,9,3,0.7319999999999998,3.3549999999999973,1.463999999999999,5.123999999999996,2,10,5,13,2,19,5,25,0,0.5,41,84,5.489999999999996,13,26,5.75,6,L,0.2222142857142857,0.17657894736842106,0.29279999999999995,0.20496
8,3,6,0,0,0,0,0,90,20,94,15,2.2569999999999983,1.1589999999999994,5.306999999999996,0.305,10,5,16,2,10,5,32,2,0,0,18,61,8.356999999999994,16,40,4.5,6,L,0.21228,0.2318,0.16584374999999998,0.1525
8,4,7,0,0,0,0,0,87,94,8,52,0.5489999999999999,4.086999999999997,6.587999999999995,0.183,2,10,13,2,3,18,32,2,0,0,16,102,4.574999999999997,13,22,4,6,L,0.20496,0.2270555555555555,0.20587499999999997,0.0915
8,4,8,0,0,0,0,0,83,66,79,78,0.305,0.305,1.524999999999999,0.244,2,2,3,1,2,2,3,1,0,0.5,22,18,14.090999999999989,19,69,3.25,6,L,0.20276056338028167,0.1525,0.5083333333333331,0.244
8,5,9,0,0,0,0,0,95,15,53,50,4.147999999999997,0.183,48.49499999999996,1.2809999999999993,11,2,17,5,20,2,205,5,0,0,17,105,5.245999999999996,13,30,4.25,6,L,0.18788,0.0915,0.23656097560975606,0.2562
8,5,10,0,0,0,0,0,3,7,62,84,0.7929999999999997,40.38199999999997,0.122,0.244,4,16,1,1,4,168,1,1,0,0,19,119,8.539999999999994,13,37,4.75,6,L,0.2276341463414634,0.2403690476190476,0.122,0.244
9,1,1,0,0,0,0,0,108,106,69,39,3.598999999999997,1.7079999999999989,2.3789999999999982,2.500999999999998,14,10,11,8,19,11,11,10,0,0,13,107,17.689999999999987,18,86,3.25,6,L,0.20275238095238093,0.15527272727272726,0.21627272727272726,0.2501
9,1,2,0,0,0,0,0,119,82,25,8,4.635999999999997,0.122,0.061,1.8299999999999987,16,1,1,8,24,1,1,10,0,0,16,9,37.81999999999997,20,173,4,6,L,0.21551269035532994,0.122,0.061,0.183
9,2,3,0,0,0,0,0,58,51,10,32,5.611999999999996,2.1349999999999985,0.9149999999999996,1.9519999999999986,14,8,4,7,23,9,5,9,0,0,19,36,10.369999999999992,17,52,4.75,6,L,0.21309333333333333,0.2372222222222222,0.183,0.21688888888888888
9,2,4,0,0,0,0,0,62,46,41,119,4.452999999999997,0.183,1.4029999999999991,1.8299999999999987,15,1,4,11,25,1,4,11,0,0,16,38,10.918999999999992,18,70,4,6,L,0.16181052631578946,0.183,0.35074999999999995,0.16636363636363635
9,3,5,0,0,0,0,0,30,19,31,14,0.183,3.598999999999997,1.0369999999999995,2.9889999999999977,2,14,6,12,2,21,6,17,0,0,22,32,10.491999999999992,17,55,5.5,6,L,0.18728070175438596,0.17138095238095238,0.17283333333333334,0.1758235294117647
9,3,6,0,0,0,0,0,2,1,74,100,3.9649999999999967,6.099999999999995,0.8539999999999996,0.061,16,14,6,1,22,29,6,1,0,0,17,9,12.68799999999999,18,62,4.25,6,L,0.19824999999999998,0.21034482758620687,0.14233333333333334,0.061
9,4,7,0,0,0,0,0,77,27,112,4,0.305,1.3419999999999992,1.7079999999999989,0.5489999999999999,1,4,8,2,1,4,10,2,0,0,16,34,15.127999999999988,18,81,4,6,L,0.18820731707317073,0.3354999999999999,0.1708,0.27449999999999997
9,4,8,0,0,0,0,0,15,22,14,60,0.5489999999999999,1.4029999999999991,1.463999999999999,24.09499999999998,3,6,8,16,3,7,10,106,0,0.5,40,101,9.210999999999993,14,44,5.5,6,L,0.20765957446808508,0.20042857142857143,0.1464,0.22731132075471697
9,5,9,0,0,0,0,0,66,1,3,5,10.064999999999992,0.122,0.366,0.366,18,2,2,2,53,2,2,2,0,0.5,40,86,7.746999999999994,16,35,5.5,6,L,0.2024090909090909,0.061,0.183,0.183
9,5,10,0,0,0,0,0,22,34,31,18,0.9149999999999996,0.244,0.8539999999999996,2.3789999999999982,8,2,4,10,10,2,4,10,0,0,22,115,21.715999999999983,17,96,5.5,6,L,0.21349999999999997,0.122,0.2135,0.23789999999999994
10,1,1,0,0,0,0,0,41,112,45,118,0.8539999999999996,5.306999999999996,0.9759999999999995,1.2809999999999993,2,13,6,3,2,27,7,3,0,0,14,93,9.942999999999993,19,49,3.5,6,L,0.21170588235294116,0.19655555555555554,0.13942857142857143,0.427
10,1,2,0,0,0,0,0,69,97,34,25,1.0979999999999994,0.305,0.488,0.488,5,2,4,2,5,2,4,2,0,0,16,98,42.39499999999997,20,186,4,6,L,0.22771204188481672,0.1525,0.122,0.244
10,2,3,0,0,0,0,0,11,29,36,79,9.576999999999993,5.306999999999996,0.183,0.061,19,16,2,1,49,19,2,1,0,0,19,12,27.815999999999978,19,108,4.75,6,L,0.23817197452229297,0.2793157894736842,0.0915,0.061
10,2,4,0,0,0,0,0,20,119,92,13,0.122,1.4029999999999991,1.524999999999999,0.122,1,6,10,1,1,7,12,1,0,0,17,47,22.996999999999982,20,106,4.25,6,L,0.21606542056074765,0.20042857142857143,0.12708333333333333,0.122
10,3,5,0,0,0,0,0,53,21,13,94,1.7079999999999989,3.476999999999997,0.6709999999999998,2.3179999999999983,7,14,2,8,8,17,3,9,0,0,19,102,12.19999999999999,20,67,4.75,6,L,0.18544,0.20452941176470588,0.22366666666666665,0.25755555555555554
10,3,6,0,0,0,0,0,41,7,2,62,0.305,1.0369999999999995,0.305,0.244,3,4,1,1,3,4,1,1,0,0,21,40,46.603999999999964,20,189,5.25,6,L,0.2443177083333333,0.25925,0.305,0.244
10,4,7,0,0,0,0,0,31,11,93,36,1.1589999999999994,3.781999999999997,1.1589999999999994,0.488,3,16,4,2,3,24,4,2,0,0,19,95,11.223999999999991,18,57,4.75,6,L,0.2063833333333333,0.15758333333333333,0.28974999999999995,0.244
10,4,8,0,0,0,0,0,79,80,24,70,0.122,0.5489999999999999,0.366,0.305,1,4,1,3,1,4,1,3,0,0,16,83,19.702999999999985,19,95,4,6,L,0.20651041666666664,0.13724999999999998,0.366,0.10166666666666667
10,5,9,0,0,0,0,0,7,4,61,11,0.061,2.1959999999999984,0.366,1.2809999999999993,1,8,3,5,1,11,3,5,0,0.5,40,63,9.759999999999993,14,40,5.5,6,L,0.23953658536585362,0.19963636363636364,0.122,0.2562
10,5,10,0,0,0,0,0,40,86,59,57,1.3419999999999992,5.367999999999996,0.8539999999999996,0.6099999999999999,5,13,4,1,5,24,4,1,0,0,16,93,10.796999999999992,18,50,4,6,L,0.22070909090909088,0.22366666666666662,0.21349999999999997,0.6099999999999999
11,1,1,0,0,0,0,0,8,77,66,47,0.6709999999999998,0.6099999999999999,1.4029999999999991,2.683999999999998,4,2,7,10,4,2,7,14,0,0,18,79,25.61999999999998,20,111,4.5,6,L,0.2286173913043478,0.305,0.20042857142857143,0.1917142857142857
11,1,2,0,0,0,0,0,21,116,113,90,1.1589999999999994,3.0499999999999976,0.6709999999999998,6.953999999999994,5,15,2,15,7,20,2,31,0,0,13,87,17.262999999999987,19,74,3.25,6,L,0.22743209876543208,0.1525,0.3355,0.22432258064516125
11,2,3,0,0,0,0,0,75,24,98,13,1.524999999999999,0.7319999999999998,3.598999999999997,0.366,7,6,12,4,7,6,16,4,0,0,17,79,12.26099999999999,18,60,4.25,6,L,0.20576119402985074,0.122,0.22493749999999998,0.0915
11,2,4,0,0,0,0,0,27,7,1,6,0.183,0.061,2.9889999999999977,2.0129999999999986,1,1,9,8,1,1,14,8,0,0.5,41,11,10.003999999999992,16,42,5.75,6,L,0.23690697674418604,0.061,0.21349999999999997,0.251625
11,3,5,0,0,0,0,0,79,27,1,75,1.0369999999999995,0.427,0.183,2.9889999999999977,3,3,1,9,3,3,1,10,0,0,17,10,14.273999999999988,17,52,4.25,6,L,0.2783818181818181,0.14233333333333334,0.183,0.29889999999999994
11,3,6,0,0,0,0,0,20,15,88,39,6.221999999999995,5.550999999999996,0.6099999999999999,0.244,15,16,3,3,21,25,4,3,0,0,20,21,21.776999999999983,18,102,5,6,L,0.2276341463414634,0.22204,0.1525,0.08133333333333333
11,4,7,0,0,0,0,0,84,34,8,6,1.463999999999999,0.6099999999999999,0.427,4.513999999999997,5,2,3,12,5,2,3,20,0,0,20,12,26.22999999999998,16,117,5,6,L,0.22699999999999998,0.305,0.14233333333333334,0.22569999999999998
11,4,8,0,0,0,0,0,89,13,44,115,1.0369999999999995,3.537999999999997,5.916999999999995,0.427,8,10,14,2,8,15,31,2,0,0,16,23,8.356999999999994,17,43,4,6,L,0.18419607843137253,0.23586666666666667,0.1908709677419355,0.2135
11,5,9,0,0,0,0,0,12,88,5,9,5.611999999999996,0.9149999999999996,3.903999999999997,0.244,10,9,10,2,19,9,14,3,0,0.5,39,8,12.44399999999999,19,66,5.25,6,L,0.21242352941176468,0.10166666666666667,0.27885714285714286,0.08133333333333333
11,5,10,0,0,0,0,0,42,23,111,79,2.561999999999998,0.427,0.5489999999999999,0.7319999999999998,11,4,3,1,16,4,3,1,0,0,16,115,15.676999999999987,17,67,4,6,L,0.21974698795180722,0.10675,0.183,0.7319999999999998
12,1,1,0,0,0,0,0,26,107,19,21,1.2809999999999993,1.3419999999999992,0.6099999999999999,4.086999999999997,5,6,2,11,5,6,3,14,0,0,19,51,23.97299999999998,19,124,4.75,6,L,0.1957674418604651,0.22366666666666665,0.20333333333333334,0.29192857142857137
12,1,2,0,0,0,0,0,67,47,46,116,3.2939999999999974,0.122,0.183,2.683999999999998,13,2,3,11,16,2,3,16,0,0,16,75,18.299999999999986,19,84,4,6,L,0.21594,0.061,0.061,0.16774999999999998
12,2,3,0,0,0,0,0,23,112,114,16,5.184999999999996,1.8909999999999987,0.7319999999999998,3.903999999999997,16,7,6,14,32,7,6,22,0,0,16,21,11.223999999999991,16,45,4,6,L,0.2131038961038961,0.27014285714285713,0.122,0.17745454545454545
12,2,4,0,0,0,0,0,85,47,88,106,1.0979999999999994,0.6099999999999999,1.0979999999999994,0.9149999999999996,4,4,4,3,4,4,4,3,0,0,13,95,18.360999999999986,20,92,3.25,6,L,0.20269791666666667,0.1525,0.27449999999999997,0.30499999999999994
12,3,5,0,0,0,0,0,32,28,25,20,0.305,1.646999999999999,3.476999999999997,1.2809999999999993,1,6,13,5,1,7,15,5,0,0.5,36,24,25.19299999999998,20,132,5.25,6,L,0.1917142857142857,0.2352857142857143,0.23179999999999998,0.25619999999999993
12,3,6,0,0,0,0,0,46,45,48,94,0.7319999999999998,1.8909999999999987,0.183,1.1589999999999994,4,8,1,8,4,9,1,8,0,0.5,33,54,47.88499999999996,19,215,4.5,6,L,0.22199543378995432,0.21011111111111108,0.183,0.144875
12,4,7,0,0,0,0,0,103,90,99,24,0.7319999999999998,1.0369999999999995,1.2199999999999993,0.5489999999999999,3,5,6,2,3,5,7,2,0,0,13,72,7.441999999999994,15,38,3.25,6,L,0.19936585365853657,0.20739999999999997,0.1742857142857143,0.27449999999999997
12,4,8,0,0,0,0,0,7,34,120,50,7.319999999999994,7.197999999999994,0.7929999999999997,2.9889999999999977,16,17,6,10,29,27,6,15,0,0,17,31,38.24699999999997,20,175,4.25,6,L,0.2233676470588235,0.26659259259259255,0.13216666666666665,0.19926666666666668
12,5,9,0,0,0,0,0,85,3,43,107,2.439999999999998,0.122,2.1349999999999985,4.818999999999996,13,1,4,12,14,1,5,18,0,0,16,9,31.597999999999974,19,159,4,6,L,0.1967514450867052,0.122,0.42699999999999994,0.26772222222222214
12,5,10,0,0,0,0,0,80,15,36,112,0.8539999999999996,1.524999999999999,3.1109999999999975,0.8539999999999996,5,8,11,3,5,8,17,3,0,0,16,33,10.308999999999992,17,51,4,6,L,0.1993392857142857,0.190625,0.183,0.2846666666666667
13,1,1,0,0,0,0,0,97,103,91,57,3.781999999999997,5.184999999999996,0.183,1.3419999999999992,13,16,1,4,23,27,1,4,0,0,11,47,13.48099999999999,19,63,2.75,6,L,0.2007325581395349,0.192037037037037,0.183,0.3355
13,1,2,0,0,0,0,0,70,16,28,73,1.9519999999999986,1.9519999999999986,10.125999999999992,0.8539999999999996,8,6,16,3,9,8,49,3,0,0,18,71,10.186999999999992,16,50,4.5,6,L,0.2057457627118644,0.244,0.2066530612244898,0.2846666666666666
13,2,3,0,0,0,0,0,67,18,75,71,1.2199999999999993,1.0979999999999994,3.781999999999997,1.1589999999999994,3,5,14,6,3,5,22,7,0,0,17,21,12.26099999999999,18,68,4.25,6,L,0.1898732394366197,0.2196,0.1719090909090909,0.16557142857142856
13,2,4,0,0,0,0,0,86,6,115,5,0.9759999999999995,1.646999999999999,0.061,0.6099999999999999,5,6,1,3,5,7,1,3,0,0,17,91,11.95599999999999,19,53,4.25,6,L,0.22296551724137928,0.23528571428571424,0.061,0.20333333333333334
13,3,5,0,0,0,0,0,77,19,13,102,0.305,1.4029999999999991,7.807999999999994,0.9759999999999995,1,7,15,4,1,7,35,5,0,0,17,74,10.369999999999992,16,46,4.25,6,L,0.22712765957446807,0.20042857142857143,0.22308571428571425,0.19519999999999998
13,3,6,0,0,0,0,0,1,30,63,29,21.776999999999983,1.646999999999999,0.6099999999999999,0.061,19,6,6,1,101,6,6,1,0,0,20,92,7.075999999999994,16,39,5,6,L,0.20609285714285713,0.27449999999999997,0.10166666666666667,0.061
13,4,7,0,0,0,0,0,104,91,6,67,5.062999999999996,0.488,0.7929999999999997,4.7579999999999965,12,3,5,11,24,3,5,20,0,0,15,94,7.746999999999994,17,48,3.75,6,L,0.17791666666666664,0.16266666666666665,0.1586,0.23789999999999994
13,4,8,0,0,0,0,0,23,18,114,16,0.9759999999999995,2.9279999999999977,0.305,0.122,10,13,1,1,10,16,1,1,0,0.5,38,42,32.57399999999998,19,138,5,6,L,0.22668918918918918,0.183,0.305,0.122
13,5,9,0,0,0,0,0,84,2,1,10,0.9149999999999996,2.622999999999998,1.7689999999999988,0.061,4,8,7,1,4,10,7,1,0,0.5,39,7,7.136999999999994,14,37,5.25,6,L,0.19639024390243903,0.2623,0.2527142857142856,0.061
13,5,10,0,0,0,0,0,13,23,14,29,2.9279999999999977,11.83399999999999,0.6709999999999998,0.8539999999999996,7,15,2,6,11,56,2,6,0,0.5,41,59,4.7579999999999965,13,27,5.75,6,L,0.20226315789473684,0.21132142857142852,0.3354999999999999,0.14233333333333334
14,1,1,0,0,0,0,0,67,62,26,116,1.9519999999999986,4.818999999999996,0.244,1.2809999999999993,10,13,4,4,11,20,4,4,0,0,15,79,11.83399999999999,17,56,3.75,6,L,0.20576119402985074,0.24095,0.061,0.3202499999999999
14,1,2,0,0,0,0,0,99,103,7,92,0.366,0.6709999999999998,2.1349999999999985,1.4029999999999991,3,4,10,4,3,4,11,4,0,0,13,42,31.597999999999974,19,126,3.25,6,L,0.24778294573643408,0.16775,0.1940909090909091,0.35075
14,2,3,0,0,0,0,0,103,5,9,77,0.9759999999999995,0.8539999999999996,5.489999999999996,1.646999999999999,6,6,12,8,7,6,25,8,0,0,17,79,16.10399999999999,19,77,4.25,6,L,0.2033333333333333,0.14233333333333334,0.2196,0.20587499999999997
14,2,4,0,0,0,0,0,29,16,86,13,0.6099999999999999,0.9759999999999995,1.0979999999999994,1.4029999999999991,7,6,5,6,7,6,5,6,0,0,20,70,33.122999999999976,19,140,5,6,L,0.22947619047619044,0.16266666666666665,0.2196,0.2338333333333333
14,3,5,0,0,0,0,0,80,24,40,23,0.366,0.5489999999999999,0.244,3.0499999999999976,1,2,2,8,1,2,2,12,0,0,20,75,67.58800000000036,20,302,5,6,L,0.22427062706270626,0.27449999999999997,0.122,0.25416666666666665
14,3,6,0,0,0,0,0,7,55,85,52,0.8539999999999996,0.183,1.524999999999999,0.6709999999999998,2,2,6,2,2,2,8,2,0,0,17,92,17.933999999999987,20,94,4.25,6,L,0.19570833333333332,0.0915,0.190625,0.3355
14,4,7,0,0,0,0,0,1,119,110,12,6.221999999999995,0.061,0.122,0.183,16,1,1,1,34,1,1,1,0,0,16,37,6.587999999999995,15,32,4,6,L,0.1940909090909091,0.061,0.122,0.183
14,4,8,0,0,0,0,0,64,13,18,15,7.502999999999994,1.0369999999999995,5.062999999999996,32.26899999999998,15,6,15,16,42,6,22,141,0,0.5,40,101,11.467999999999991,15,54,5.5,6,L,0.19761458333333332,0.17283333333333334,0.23013636363636364,0.22885815602836876
14,5,9,0,0,0,0,0,88,13,19,18,2.561999999999998,7.136999999999994,0.061,0.244,11,14,1,1,13,32,1,1,0,0.5,39,53,7.9299999999999935,16,34,5.25,6,L,0.2232340425531915,0.22303125,0.061,0.244
14,5,10,0,0,0,0,0,12,9,26,8,4.086999999999997,0.061,0.9149999999999996,4.818999999999996,11,1,5,13,16,1,5,24,0,0.5,41,4,5.550999999999996,13,30,5.75,6,L,0.20952173913043476,0.061,0.183,0.20079166666666667
15,1,1,0,0,0,0,0,74,99,81,1,2.3789999999999982,2.9279999999999977,0.6099999999999999,1.2809999999999993,8,14,2,5,9,19,2,5,0,0,14,101,9.393999999999993,18,42,3.5,6,L,0.23084313725490194,0.15410526315789475,0.30499999999999994,0.2562
15,1,2,0,0,0,0,0,69,90,85,13,2.1959999999999984,0.305,8.234999999999994,11.162999999999991,9,2,15,14,10,2,47,48,0,0,16,113,8.905999999999993,15,41,4,6,L,0.2176862745098039,0.1525,0.1752127659574468,0.23256249999999998
15,2,3,0,0,0,0,0,104,3,6,99,1.524999999999999,6.404999999999995,4.6969999999999965,1.646999999999999,6,14,17,3,6,30,22,4,0,0,16,89,13.602999999999989,18,64,4,6,L,0.2161142857142857,0.2135,0.21349999999999997,0.4117499999999999
15,2,4,0,0,0,0,0,31,29,17,70,1.8299999999999987,3.2329999999999974,2.622999999999998,1.524999999999999,5,15,12,6,5,21,15,6,0,0,20,75,21.410999999999984,17,92,5,6,L,0.23959793814432986,0.15395238095238095,0.17486666666666667,0.25416666666666665
15,3,5,0,0,0,0,0,9,2,70,74,0.305,4.452999999999997,15.615999999999987,0.366,2,15,17,2,3,26,77,2,0,0,19,106,5.7339999999999955,15,26,4.75,6,L,0.2082413793103448,0.17126923076923076,0.2028051948051948,0.183
15,3,6,0,0,0,0,0,92,24,59,21,1.8909999999999987,1.463999999999999,0.5489999999999999,0.6709999999999998,10,11,5,4,11,12,5,4,0,0,19,119,17.628999999999987,20,82,4.75,6,L,0.20989247311827955,0.122,0.1098,0.16775
15,4,7,0,0,0,0,0,39,41,115,7,10.613999999999992,0.427,1.0979999999999994,0.6709999999999998,18,2,8,3,58,2,8,3,0,0,18,2,4.208999999999997,13,19,4.5,6,L,0.1925064935064935,0.2135,0.13724999999999998,0.22366666666666665
15,4,8,0,0,0,0,0,103,97,14,26,2.744999999999998,0.7929999999999997,1.1589999999999994,14.578999999999988,11,4,3,16,11,4,3,74,0,0,15,52,5.7339999999999955,10,20,3.75,6,L,0.273516129032258,0.19824999999999998,0.3863333333333333,0.1970135135135135
15,5,9,0,0,0,0,0,65,3,46,74,0.8539999999999996,11.284999999999991,1.7079999999999989,0.061,4,16,5,1,4,63,5,1,0,0,18,6,9.393999999999993,16,51,4.5,6,L,0.18632727272727273,0.1791269841269841,0.3415999999999998,0.061
15,5,10,0,0,0,0,0,19,15,30,105,5.428999999999996,3.598999999999997,9.881999999999993,0.244,14,11,16,2,33,14,40,2,0,0,19,16,7.197999999999994,14,35,4.75,6,L,0.18569117647058822,0.2570714285714285,0.24704999999999996,0.122
16,1,1,0,0,0,0,0,118,45,43,114,0.061,0.061,1.7079999999999989,1.7689999999999988,1,1,9,10,1,1,9,12,0,0,14,15,17.994999999999987,19,93,3.5,6,L,0.1920851063829787,0.061,0.18977777777777777,0.14741666666666667
16,1,2,0,0,0,0,0,2,12,4,9,10.308999999999992,0.427,2.683999999999998,0.244,16,1,9,2,48,1,14,2,0,1,72,69,7.9299999999999935,11,28,6,6,L,0.23998684210526314,0.427,0.1917142857142857,0.122
16,2,3,0,0,0,0,0,55,116,28,89,2.0129999999999986,2.500999999999998,1.7689999999999988,0.488,8,10,9,5,8,11,9,5,0,0,14,53,10.247999999999992,18,49,3.5,6,L,0.21510526315789472,0.22736363636363635,0.19655555555555554,0.09759999999999999
16,2,4,0,0,0,0,0,6,47,70,76,2.1959999999999984,0.427,3.537999999999997,0.122,6,3,10,1,7,3,14,1,0,0,18,100,11.345999999999991,19,57,4.5,6,L,0.21159374999999997,0.14233333333333334,0.2527142857142857,0.122
16,3,5,0,0,0,0,0,118,81,82,33,5.062999999999996,2.2569999999999983,1.2809999999999993,0.6709999999999998,13,6,6,3,16,7,6,3,0,0,13,20,12.87099999999999,18,69,3.25,6,L,0.21098823529411764,0.32242857142857134,0.2135,0.22366666666666665
16,3,6,0,0,0,0,0,3,64,6,46,10.369999999999992,5.428999999999996,0.244,18.055999999999987,16,15,2,16,37,28,2,74,0,0,21,12,14.090999999999989,17,58,5.25,6,L,0.25748421052631576,0.19389285714285714,0.122,0.24399999999999997
16,4,7,0,0,0,0,0,23,13,112,79,5.489999999999996,2.805999999999998,0.061,0.427,14,11,1,3,30,14,1,3,0,0,17,62,7.319999999999994,14,37,4.25,6,L,0.19119402985074627,0.20042857142857143,0.061,0.14233333333333334
16,4,8,0,0,0,0,0,11,4,1,90,0.6099999999999999,3.4159999999999973,5.855999999999995,10.369999999999992,7,9,12,15,7,15,26,52,0,0.5,39,30,9.698999999999993,13,47,5.25,6,L,0.1909074074074074,0.2277333333333333,0.22523076923076923,0.1994230769230769
16,5,9,0,0,0,0,0,44,120,21,76,8.051999999999994,2.8669999999999978,0.183,0.6709999999999998,16,8,1,3,34,12,1,3,0,0,16,15,10.674999999999992,16,46,4,6,L,0.23408749999999998,0.23891666666666667,0.183,0.22366666666666665
16,5,10,0,0,0,0,0,88,11,103,68,0.305,0.183,0.427,0.183,1,1,2,1,1,1,2,1,0,0,15,85,95.28200000000356,20,393,3.75,6,L,0.24260659898477155,0.183,0.2135,0.183
17,1,1,0,0,0,0,0,21,25,85,31,1.8299999999999987,1.8299999999999987,1.9519999999999986,0.244,8,6,8,1,11,7,9,1,0,0,19,118,28.486999999999977,20,138,4.75,6,L,0.2034697986577181,0.2614285714285714,0.21688888888888888,0.244
17,1,2,0,0,0,0,0,64,107,72,39,0.9149999999999996,2.3789999999999982,1.7079999999999989,1.524999999999999,4,12,3,5,5,15,4,5,0,0,15,105,20.190999999999985,19,87,3.75,6,L,0.22941304347826083,0.1586,0.4269999999999998,0.30499999999999994
17,2,3,0,0,0,0,0,93,2,67,7,2.3179999999999983,2.0129999999999986,2.683999999999998,0.366,12,9,10,3,14,11,14,3,0,0,19,95,18.116999999999987,19,91,4.75,6,L,0.1946190476190476,0.18299999999999997,0.1917142857142857,0.122
17,2,4,0,0,0,0,0,16,84,83,14,6.221999999999995,1.8909999999999987,4.879999999999996,3.842999999999997,17,9,12,12,31,10,16,19,0,0,18,24,17.201999999999988,19,82,4.5,6,L,0.20729203539823007,0.1891,0.30499999999999994,0.20226315789473684
17,3,5,0,0,0,0,0,4,29,59,12,0.8539999999999996,1.7689999999999988,1.2199999999999993,0.305,3,10,6,3,3,10,6,3,0,0,21,78,24.58299999999998,19,111,5.25,6,L,0.2231315789473684,0.1769,0.20333333333333334,0.10166666666666667
17,3,6,0,0,0,0,0,18,14,66,72,1.1589999999999994,13.48099999999999,1.2809999999999993,2.1959999999999984,4,16,5,11,5,59,6,13,0,0,20,48,8.783999999999994,15,43,5,6,L,0.20714583333333333,0.22849152542372878,0.21349999999999997,0.1689230769230769
17,4,7,0,0,0,0,0,15,76,100,28,2.805999999999998,3.720999999999997,0.6709999999999998,0.6099999999999999,10,11,3,5,14,14,3,5,0,0,16,26,6.160999999999995,14,30,4,6,L,0.20379545454545453,0.2657857142857143,0.22366666666666665,0.122
17,4,8,0,0,0,0,0,114,57,11,47,0.427,0.366,1.0979999999999994,0.244,1,2,5,1,1,2,6,1,0,0,17,12,27.876999999999978,19,117,4.25,6,L,0.23986440677966098,0.183,0.18299999999999997,0.244
17,5,9,0,0,0,0,0,80,9,4,110,0.6099999999999999,0.244,3.2329999999999974,0.488,3,1,12,4,3,1,12,4,0,0,17,111,19.275999999999986,20,89,4.25,6,L,0.21615217391304348,0.244,0.26941666666666664,0.122
17,5,10,0,0,0,0,0,13,29,24,21,1.3419999999999992,4.513999999999997,0.7929999999999997,0.7319999999999998,5,16,3,3,5,29,3,4,0,0.5,41,56,9.210999999999993,16,45,5.75,6,L,0.21105999999999997,0.1556551724137931,0.2643333333333333,0.183
18,1,1,0,0,0,0,0,93,59,90,87,0.183,0.6099999999999999,1.9519999999999986,0.9759999999999995,1,1,7,2,1,2,7,2,0,0.5,22,104,28.242999999999977,20,106,3.25,6,L,0.26566355140186915,0.305,0.27885714285714286,0.48799999999999993
18,1,2,0,0,0,0,0,112,34,68,75,1.4029999999999991,0.366,0.5489999999999999,0.7319999999999998,10,2,1,5,10,2,1,5,0,0,14,35,30.011999999999976,20,136,3.5,6,L,0.2151712328767123,0.183,0.5489999999999999,0.1464
18,2,3,0,0,0,0,0,13,46,40,18,6.8319999999999945,1.463999999999999,2.744999999999998,1.463999999999999,14,9,14,11,30,10,16,11,0,0,22,98,9.149999999999993,18,50,5.5,6,L,0.19977499999999998,0.1464,0.1715625,0.1330909090909091
18,2,4,0,0,0,0,0,57,26,85,32,2.1959999999999984,1.0979999999999994,5.672999999999996,0.244,7,7,13,2,8,7,30,2,0,0,17,95,11.95599999999999,17,59,4.25,6,L,0.2112238805970149,0.15685714285714286,0.1891,0.122
18,3,5,0,0,0,0,0,25,21,24,72,2.1959999999999984,1.646999999999999,1.463999999999999,3.4159999999999973,10,11,8,12,14,12,8,16,0,0,21,119,17.018999999999988,19,85,5.25,6,L,0.19409090909090906,0.13724999999999998,0.183,0.2135
18,3,6,0,0,0,0,0,46,102,49,39,0.122,0.7929999999999997,0.427,0.6709999999999998,2,5,2,5,2,5,2,5,0,0,16,75,20.373999999999985,19,97,4,6,L,0.207030303030303,0.1586,0.2135,0.13419999999999999
18,4,7,0,0,0,0,0,47,21,42,38,2.9279999999999977,3.842999999999997,0.6709999999999998,0.7929999999999997,14,16,4,3,18,25,4,3,0,0.5,36,89,12.01699999999999,17,56,5.25,6,L,0.20195945945945945,0.15372,0.16775,0.2643333333333333
18,4,8,0,0,0,0,0,2,32,5,1,1.2809999999999993,0.183,8.417999999999994,3.659999999999997,9,1,12,12,11,1,31,19,0,0.5,41,73,13.724999999999989,17,67,5.75,6,L,0.19238461538461538,0.183,0.27154838709677415,0.1926315789473684
18,5,9,0,0,0,0,0,15,35,24,20,0.061,0.183,0.427,1.0369999999999995,1,2,1,4,1,2,1,5,0,0.5,41,33,8.783999999999994,16,43,5.75,6,L,0.20102272727272724,0.0915,0.427,0.20739999999999997
18,5,10,0,0,0,0,0,41,64,80,1,1.646999999999999,11.467999999999991,0.9759999999999995,0.9759999999999995,9,15,5,4,9,56,6,4,0,0,18,115,6.221999999999995,13,33,4.5,6,L,0.18735714285714286,0.2047857142857143,0.16266666666666665,0.24399999999999994
19,1,1,0,0,0,0,0,59,113,54,109,1.2199999999999993,0.366,0.366,3.781999999999997,8,1,2,13,8,1,2,16,0,0,12,115,19.214999999999986,19,95,3,6,L,0.19839805825242718,0.366,0.183,0.23637499999999995
19,1,2,0,0,0,0,0,65,92,34,107,1.0979999999999994,2.3179999999999983,0.122,0.8539999999999996,2,8,2,5,2,8,2,6,0,0,14,85,19.336999999999986,20,95,3.5,6,L,0.2106701030927835,0.28974999999999995,0.061,0.14233333333333334
19,2,3,0,0,0,0,0,26,91,66,14,3.781999999999997,2.622999999999998,2.561999999999998,6.8929999999999945,15,13,10,15,25,18,12,31,0,0,18,36,9.881999999999993,18,50,4.5,6,L,0.18218666666666666,0.14572222222222223,0.21349999999999994,0.2223548387096774
19,2,4,0,0,0,0,0,73,7,117,58,0.244,0.7929999999999997,5.611999999999996,0.5489999999999999,4,6,14,3,4,7,23,3,0,0,15,6,8.783999999999994,15,42,3.75,6,L,0.19626086956521738,0.11328571428571428,0.24399999999999997,0.183
19,3,5,0,0,0,0,0,99,18,41,14,0.366,1.2809999999999993,1.585999999999999,10.613999999999992,3,3,9,16,3,3,11,40,0,0,19,42,18.665999999999986,19,97,4.75,6,L,0.19032,0.42699999999999994,0.1441818181818182,0.26535
19,3,6,0,0,0,0,0,3,114,52,59,0.244,12.50499999999999,0.9149999999999996,0.6099999999999999,1,16,5,3,1,54,5,3,0,0,16,7,8.173999999999994,15,39,4,6,L,0.21045,0.23157407407407404,0.183,0.20333333333333334
19,4,7,0,0,0,0,0,94,14,53,17,0.7929999999999997,0.9149999999999996,0.305,0.183,3,10,2,3,3,10,2,3,0,0,19,101,6.953999999999994,12,29,4.75,6,L,0.24209375,0.0915,0.1525,0.061
19,4,8,0,0,0,0,0,43,47,40,76,1.463999999999999,0.427,0.244,0.6709999999999998,6,3,1,4,7,3,1,4,0,0.5,33,82,17.811999999999987,19,89,4.5,6,L,0.20079166666666665,0.14233333333333334,0.244,0.16775
19,5,9,0,0,0,0,0,31,4,91,2,0.122,0.244,0.366,4.879999999999996,2,2,2,15,2,2,2,24,0,0,20,101,18.909999999999986,18,95,5,6,L,0.1962061855670103,0.122,0.183,0.20333333333333334
19,5,10,0,0,0,0,0,15,13,79,52,0.305,2.622999999999998,4.879999999999996,0.8539999999999996,2,12,15,4,2,13,23,4,0,0,19,113,52.82599999999996,18,212,4.75,6,L,0.2482757009345794,0.20176923076923073,0.21217391304347824,0.2135
20,1,1,0,0,0,0,0,84,72,3,66,0.488,1.0369999999999995,0.244,0.5489999999999999,2,6,1,2,2,6,1,2,0,0,17,106,34.647999999999975,20,163,4.25,6,L,0.21294545454545452,0.17283333333333334,0.244,0.27449999999999997
20,1,2,0,0,0,0,0,86,88,116,49,0.183,0.122,0.5489999999999999,0.488,1,2,7,3,1,2,7,3,0,0,12,22,55.631999999999955,20,246,3,6,L,0.22597165991902832,0.061,0.07842857142857143,0.16266666666666665
20,2,3,0,0,0,0,0,109,74,116,1,1.463999999999999,0.122,1.646999999999999,1.2809999999999993,5,1,6,5,5,1,7,5,0,0,13,54,11.040999999999991,18,63,3.25,6,L,0.1838970588235294,0.122,0.2352857142857143,0.2562
20,2,4,0,0,0,0,0,20,15,98,31,0.122,4.818999999999996,1.0369999999999995,0.122,1,16,4,2,1,33,4,2,0,0,19,107,22.203999999999983,18,98,4.75,6,L,0.2255151515151515,0.14603030303030304,0.25925,0.061
20,3,5,0,0,0,0,0,91,37,92,87,0.6709999999999998,0.7319999999999998,0.061,1.585999999999999,5,5,1,4,5,5,1,5,0,0.5,23,104,16.469999999999988,18,73,3.5,6,L,0.21975641025641024,0.1464,0.061,0.3172
20,3,6,0,0,0,0,0,73,34,25,63,1.646999999999999,0.244,0.122,0.427,8,2,1,3,9,3,1,3,0,0,17,61,28.486999999999977,20,136,4.25,6,L,0.2078206896551724,0.08133333333333333,0.122,0.14233333333333334
20,4,7,0,0,0,0,0,14,100,34,31,5.7949999999999955,4.879999999999996,0.9149999999999996,1.2199999999999993,17,15,5,9,28,24,5,10,0,0,18,25,6.282999999999995,16,32,4.5,6,L,0.20129999999999998,0.20333333333333334,0.183,0.122
20,4,8,0,0,0,0,0,2,71,115,110,5.7949999999999955,5.916999999999995,2.3179999999999983,1.2199999999999993,15,15,10,5,38,26,12,5,0,0,14,68,8.661999999999994,15,37,3.5,6,L,0.19276,0.22757692307692307,0.19316666666666665,0.244
20,5,9,0,0,0,0,0,70,28,61,91,4.391999999999997,1.524999999999999,3.0499999999999976,2.0129999999999986,16,8,12,7,28,11,17,7,0,0,16,34,11.589999999999991,16,66,4,6,L,0.17002127659574467,0.13863636363636364,0.17941176470588235,0.2875714285714286
20,5,10,0,0,0,0,0,111,110,24,39,15.676999999999987,0.122,1.1589999999999994,4.940999999999996,16,1,5,15,74,1,5,27,0,0,15,15,7.990999999999993,14,36,3.75,6,L,0.21516363636363633,0.122,0.2318,0.183
21,1,1,0,0,0,0,0,89,30,11,120,0.6709999999999998,0.7929999999999997,0.183,1.1589999999999994,4,1,1,8,4,1,1,8,0,0,16,87,39.64999999999997,20,197,4,6,L,0.20060199004975124,0.7929999999999997,0.183,0.144875
21,1,2,0,0,0,0,0,64,77,13,108,3.3549999999999973,4.330999999999997,0.488,6.099999999999995,8,16,1,16,9,19,1,34,0,0,15,76,10.735999999999992,19,51,3.75,6,L,0.23484999999999998,0.22794736842105262,0.488,0.17941176470588233
21,2,3,0,0,0,0,0,67,118,64,74,0.8539999999999996,0.305,0.427,0.488,5,3,2,2,7,3,2,2,0,0,13,65,30.987999999999975,19,144,3.25,6,L,0.21087417218543045,0.10166666666666667,0.2135,0.244
21,2,4,0,0,0,0,0,39,8,56,54,0.6099999999999999,0.366,0.122,0.8539999999999996,3,2,2,4,3,2,2,4,0,0,19,98,43.919999999999966,20,194,4.75,6,L,0.22604060913705581,0.183,0.061,0.2135
21,3,5,0,0,0,0,0,106,19,26,25,1.0979999999999994,0.244,1.2199999999999993,1.7689999999999988,11,2,7,8,11,2,7,8,0,0,18,70,31.292999999999974,20,162,4.5,6,L,0.18723121387283234,0.122,0.1742857142857143,0.22112499999999996
21,3,6,0,0,0,0,0,88,47,10,1,1.646999999999999,0.183,0.7319999999999998,0.7929999999999997,6,1,3,3,6,1,3,3,0,0,20,38,12.87099999999999,17,68,5,6,L,0.19618918918918918,0.183,0.244,0.2643333333333333
21,4,7,0,0,0,0,0,75,84,51,27,2.0739999999999985,0.122,0.122,0.488,9,2,1,1,10,2,1,1,0,0,15,23,14.029999999999989,17,63,3.75,6,L,0.2206027397260274,0.061,0.122,0.488
21,4,8,0,0,0,0,0,37,11,85,10,1.0979999999999994,0.366,2.561999999999998,3.903999999999997,4,2,9,13,5,2,9,16,0,0,20,5,36.29499999999997,18,144,5,6,L,0.2509597315436241,0.183,0.28466666666666657,0.244
21,5,9,0,0,0,0,0,20,89,32,17,0.061,0.183,0.244,2.2569999999999983,1,1,2,7,1,1,2,8,0,0,20,15,8.417999999999994,14,39,5,6,L,0.211975,0.183,0.122,0.28212499999999996
21,5,10,0,0,0,0,0,64,65,77,69,0.5489999999999999,2.3789999999999982,0.305,0.7929999999999997,5,15,3,5,5,19,3,5,0,0.5,27,72,12.07799999999999,18,61,3.75,6,L,0.1913181818181818,0.12521052631578947,0.10166666666666667,0.1586
22,1,1,0,0,0,0,0,100,1,86,58,0.8539999999999996,0.7319999999999998,19.153999999999986,0.305,5,2,16,2,5,2,72,2,0,0,15,99,16.04299999999999,20,81,3.75,6,L,0.1964767441860465,0.366,0.26602777777777775,0.1525
22,1,2,0,0,0,0,0,109,84,66,23,34.281999999999975,0.6709999999999998,0.305,0.305,19,2,2,3,164,2,2,3,0,0,15,16,17.811999999999987,20,86,3.75,6,L,0.20837599999999998,0.33549999999999996,0.1525,0.10166666666666667
22,2,3,0,0,0,0,0,22,99,73,103,2.0739999999999985,2.561999999999998,0.427,0.061,14,13,4,1,18,15,4,1,0,0,13,66,17.994999999999987,17,73,3.25,6,L,0.22053846153846152,0.1708,0.10675,0.061
22,2,4,0,0,0,0,0,11,57,119,111,5.611999999999996,0.488,1.7079999999999989,1.524999999999999,12,2,8,5,22,2,9,5,0,0,14,113,6.770999999999995,17,34,3.5,6,L,0.221125,0.244,0.18977777777777777,0.305
22,3,5,0,0,0,0,0,19,39,14,66,0.366,2.1959999999999984,0.427,0.366,3,10,5,3,3,14,5,3,0,0,21,112,10.552999999999992,15,43,5.25,6,L,0.23736956521739128,0.15685714285714286,0.0854,0.122
22,3,6,0,0,0,0,0,32,60,4,76,0.305,0.427,1.3419999999999992,5.855999999999995,4,1,3,16,4,1,5,28,0,0,18,99,21.166999999999984,20,84,4.5,6,L,0.24399999999999997,0.427,0.26839999999999997,0.2091428571428571
22,4,7,0,0,0,0,0,68,1,2,30,1.463999999999999,1.0979999999999994,3.659999999999997,2.744999999999998,4,3,14,10,4,3,20,12,0,0,21,71,9.698999999999993,17,52,5.25,6,L,0.1993392857142857,0.3659999999999999,0.183,0.22874999999999998
22,4,8,0,0,0,0,0,120,50,84,48,0.7319999999999998,0.244,0.061,0.061,5,2,1,1,5,2,1,1,0,0,14,47,37.69799999999997,19,168,3.5,6,L,0.2221387283236994,0.122,0.061,0.061
22,5,9,0,0,0,0,0,38,39,23,71,1.3419999999999992,0.7319999999999998,0.366,3.0499999999999976,9,3,3,8,10,3,3,14,0,0,20,68,10.796999999999992,16,50,5,6,L,0.20231666666666664,0.244,0.122,0.21785714285714283
22,5,10,0,0,0,0,0,9,11,82,57,1.463999999999999,0.061,4.330999999999997,0.305,9,1,11,3,10,1,18,3,0,0,19,35,19.580999999999985,18,98,4.75,6,L,0.1948611111111111,0.061,0.24061111111111108,0.10166666666666667
23,1,1,0,0,0,0,0,108,102,89,90,2.1959999999999984,0.122,0.183,0.305,8,1,2,2,8,1,2,2,0,0,10,66,26.71799999999998,20,138,2.5,6,L,0.19804109589041094,0.122,0.0915,0.1525
23,1,2,0,0,0,0,0,115,55,48,40,2.9889999999999977,0.7929999999999997,4.269999999999997,0.7319999999999998,10,4,11,3,12,5,20,3,0,0,16,114,12.62699999999999,19,64,4,6,L,0.2054736842105263,0.1586,0.2135,0.24399999999999997
23,2,3,0,0,0,0,0,33,15,118,59,0.305,0.9759999999999995,24.21699999999998,0.7929999999999997,1,5,17,5,1,5,95,5,0,0,17,93,16.34799999999999,18,73,4.25,6,L,0.2250405405405405,0.19519999999999998,0.25491578947368415,0.1586
23,2,4,0,0,0,0,0,37,10,107,101,0.061,6.709999999999995,8.905999999999993,1.3419999999999992,1,17,15,6,1,31,38,6,0,0,15,69,11.162999999999991,17,40,3.75,6,L,0.2737560975609756,0.21645161290322576,0.23436842105263156,0.22366666666666665
23,3,5,0,0,0,0,0,90,86,114,54,0.122,0.244,0.8539999999999996,0.183,1,2,5,1,1,2,5,1,0,0,12,33,50.93499999999996,19,211,3,6,L,0.24083490566037732,0.122,0.1708,0.183
23,3,6,0,0,0,0,0,14,44,82,76,2.9279999999999977,30.865999999999975,0.244,0.488,10,18,2,3,15,138,2,4,0,0,17,61,9.210999999999993,15,41,4.25,6,L,0.21676785714285712,0.22366666666666665,0.122,0.122
23,4,7,0,0,0,0,0,72,25,20,30,0.7929999999999997,1.3419999999999992,0.9149999999999996,0.061,2,5,4,1,2,5,4,1,0,0,20,110,15.249999999999988,18,71,5,6,L,0.2197671232876712,0.26839999999999997,0.22875,0.061
23,4,8,0,0,0,0,0,43,50,103,105,0.366,0.8539999999999996,0.183,0.427,2,5,1,2,2,6,1,2,0,0,13,99,64.59900000000002,19,258,3.25,6,L,0.24986538461538457,0.14233333333333334,0.183,0.2135
23,5,9,0,0,0,0,0,2,8,61,103,3.1109999999999975,10.125999999999992,0.9759999999999995,2.500999999999998,8,14,5,8,9,41,5,10,0,0,18,44,14.029999999999989,15,62,4.5,6,L,0.24142253521126758,0.24697560975609753,0.19519999999999998,0.2501
23,5,10,0,0,0,0,0,20,21,17,22,0.427,0.6709999999999998,12.68799999999999,0.183,2,5,16,2,2,5,57,2,0,1,72,58,21.471999999999984,19,87,6,6,L,0.24605617977528088,0.13419999999999999,0.22259649122807015,0.0915
24,1,1,0,0,0,0,0,29,67,105,101,0.488,1.4029999999999991,2.3789999999999982,0.7929999999999997,3,9,11,3,3,11,17,3,0,0,13,26,19.763999999999985,18,87,3.25,6,L,0.2250222222222222,0.12754545454545455,0.13994117647058824,0.2643333333333333
24,1,2,0,0,0,0,0,19,52,94,90,0.305,2.9279999999999977,1.4029999999999991,2.0129999999999986,2,11,7,9,2,14,7,12,0,0,16,109,11.528999999999991,17,53,4,6,L,0.21516363636363633,0.20914285714285713,0.20042857142857143,0.16775
24,2,3,0,0,0,0,0,17,68,70,101,2.744999999999998,0.305,0.5489999999999999,0.122,12,2,3,2,15,2,3,2,0,0,16,99,14.334999999999988,19,63,4,6,L,0.21897435897435896,0.1525,0.183,0.061
24,2,4,0,0,0,0,0,40,115,119,116,1.7689999999999988,0.122,0.5489999999999999,0.366,7,2,4,3,8,2,5,3,0,0.5,17,5,17.201999999999988,18,69,2.75,6,L,0.24637662337662336,0.061,0.1098,0.122
24,3,5,0,0,0,0,0,87,119,14,72,2.439999999999998,1.646999999999999,0.061,1.7079999999999989,10,6,1,6,14,6,1,8,0,0,15,113,9.271999999999993,17,53,3.75,6,L,0.17480597014925373,0.27449999999999997,0.061,0.2135
24,3,6,0,0,0,0,0,52,59,57,11,4.147999999999997,0.7929999999999997,1.463999999999999,0.488,15,5,5,2,21,5,5,2,0,0.5,30,28,13.846999999999989,18,62,4.5,6,L,0.21680722891566265,0.1586,0.2928,0.244
24,4,7,0,0,0,0,0,101,22,19,74,2.1349999999999985,0.6099999999999999,0.427,0.183,11,2,1,2,12,2,2,2,0,0,17,36,21.044999999999984,19,100,4.25,6,L,0.20696428571428568,0.30499999999999994,0.2135,0.0915
24,4,8,0,0,0,0,0,7,3,53,6,0.122,5.245999999999996,1.9519999999999986,4.086999999999997,1,15,8,12,1,25,8,17,0,0.5,40,4,13.17599999999999,17,61,5.5,6,L,0.21448387096774194,0.20984,0.24399999999999997,0.24041176470588235
24,5,9,0,0,0,0,0,47,45,10,8,0.122,0.244,0.427,0.122,1,3,3,1,1,3,3,1,0,0,22,64,19.885999999999985,19,93,5.5,6,L,0.21285106382978722,0.08133333333333333,0.14233333333333334,0.122
24,5,10,0,0,0,0,0,25,14,51,33,0.183,1.585999999999999,12.99299999999999,1.0369999999999995,1,6,17,7,1,7,54,9,0,0,20,50,16.957999999999988,19,82,5,6,L,0.2065180722891566,0.22657142857142856,0.24061111111111108,0.11522222222222223
25,1,1,0,0,0,0,0,111,109,91,115,0.122,0.244,0.9149999999999996,1.1589999999999994,1,2,3,5,1,2,3,5,0,0.5,15,120,15.920999999999987,19,83,2.25,6,L,0.19098809523809523,0.122,0.305,0.23179999999999998
25,1,2,0,0,0,0,0,75,2,49,99,1.2199999999999993,1.463999999999999,0.122,0.122,4,11,1,1,4,12,1,1,0,0,15,11,22.142999999999983,19,114,3.75,6,L,0.1979915254237288,0.122,0.122,0.122
25,2,3,0,0,0,0,0,49,102,2,6,7.563999999999994,0.305,1.8299999999999987,0.8539999999999996,17,3,12,3,36,3,15,3,0,0,18,90,8.905999999999993,16,43,4.5,6,L,0.20848101265822783,0.10166666666666667,0.122,0.2846666666666667
25,2,4,0,0,0,0,0,73,112,63,40,1.8909999999999987,1.1589999999999994,0.7319999999999998,0.305,5,9,3,1,5,10,3,1,0,0,14,46,26.16899999999998,18,115,3.5,6,L,0.2338333333333333,0.1159,0.244,0.305
25,3,5,0,0,0,0,0,31,82,118,73,1.2809999999999993,0.427,0.366,0.427,4,2,2,3,4,2,2,3,0,0,13,25,13.663999999999989,17,65,3.25,6,L,0.21659420289855072,0.2135,0.183,0.14233333333333334
25,3,6,0,0,0,0,0,2,53,85,108,1.4029999999999991,0.7319999999999998,1.4029999999999991,1.646999999999999,6,7,7,8,6,7,7,9,0,0,15,105,7.197999999999994,17,39,3.75,6,L,0.19113333333333332,0.10457142857142857,0.20042857142857143,0.183
25,4,7,0,0,0,0,0,19,14,106,70,2.0739999999999985,0.366,8.661999999999994,0.9149999999999996,8,3,17,3,10,3,47,3,0,0,18,84,8.600999999999994,17,39,4.5,6,L,0.21785714285714286,0.122,0.18429787234042552,0.305
25,4,8,0,0,0,0,0,110,3,1,36,2.744999999999998,1.0369999999999995,12.93199999999999,1.585999999999999,12,6,17,4,16,6,65,5,0,0,19,6,11.89499999999999,19,58,4.75,6,L,0.19783783783783784,0.17283333333333334,0.19895384615384615,0.3171999999999999
25,5,9,0,0,0,0,0,103,26,63,84,1.0369999999999995,1.7689999999999988,4.330999999999997,1.7689999999999988,4,8,14,6,4,9,25,6,0,0,14,74,10.125999999999992,17,48,3.5,6,L,0.2146730769230769,0.19655555555555554,0.17323999999999998,0.2948333333333333
25,5,10,0,0,0,0,0,16,51,114,41,5.184999999999996,3.659999999999997,3.903999999999997,1.7079999999999989,14,12,14,10,31,21,22,10,0,0,17,119,9.271999999999993,16,53,4.25,6,L,0.17210714285714285,0.17428571428571427,0.17745454545454545,0.1708
26,1,1,0,0,0,0,0,92,53,96,98,0.183,0.366,0.183,0.122,1,2,2,1,1,2,2,1,0,0,12,50,72.10200000000088,20,306,3,6,L,0.2354560260586319,0.183,0.0915,0.122
26,1,2,0,0,0,0,0,75,63,114,116,9.820999999999993,0.7319999999999998,0.366,0.9759999999999995,19,5,3,3,41,5,3,4,0,0,11,115,16.10399999999999,19,66,2.75,6,L,0.24228971962616822,0.1464,0.122,0.24399999999999997
26,2,3,0,0,0,0,0,74,76,56,106,1.0369999999999995,1.2809999999999993,0.366,1.4029999999999991,8,7,2,6,8,10,2,6,0,0,12,60,13.785999999999989,19,76,3,6,L,0.1764642857142857,0.1281,0.183,0.23383333333333334
26,2,4,0,0,0,0,0,70,14,116,63,7.319999999999994,0.183,0.7319999999999998,1.4029999999999991,16,2,4,5,32,2,4,6,0,0,16,18,10.003999999999992,16,48,4,6,L,0.21655,0.0915,0.183,0.23383333333333334
26,3,5,0,0,0,0,0,63,34,31,115,1.646999999999999,0.061,0.9149999999999996,1.4029999999999991,10,1,7,8,12,1,7,10,0,0,16,77,17.262999999999987,17,79,4,6,L,0.2078021978021978,0.061,0.1307142857142857,0.1403
26,3,6,0,0,0,0,0,96,101,108,1,2.3789999999999982,0.7319999999999998,0.488,1.8299999999999987,8,4,3,7,9,4,3,7,0,0,13,100,10.186999999999992,16,48,3.25,6,L,0.22045614035087718,0.183,0.16266666666666665,0.2614285714285714
26,4,7,0,0,0,0,0,15,108,20,94,1.463999999999999,0.488,0.9759999999999995,13.48099999999999,5,4,4,15,5,4,5,49,0,0,17,19,4.269999999999997,11,21,4.25,6,L,0.22053846153846152,0.122,0.19519999999999998,0.2751224489795918
26,4,8,0,0,0,0,0,75,113,79,74,2.1959999999999984,0.7319999999999998,0.6709999999999998,1.8909999999999987,10,2,4,13,17,2,5,15,0,0.5,20,114,9.210999999999993,14,37,2.75,6,L,0.2112407407407407,0.366,0.13419999999999999,0.12606666666666666
26,5,9,0,0,0,0,0,46,83,5,79,1.4029999999999991,2.9889999999999977,1.2199999999999993,1.0979999999999994,6,13,8,4,6,14,8,4,0,0,17,64,19.641999999999985,18,89,4.25,6,L,0.22152631578947365,0.21349999999999997,0.1525,0.27449999999999997
26,5,10,0,0,0,0,0,14,59,26,116,1.3419999999999992,12.62699999999999,0.061,8.051999999999994,8,17,1,15,8,64,1,39,0,0,17,92,7.502999999999994,13,37,4.25,6,L,0.19655555555555554,0.19729687499999998,0.061,0.20646153846153845
27,1,1,0,0,0,0,0,19,77,116,42,0.122,0.061,0.366,0.122,1,1,3,1,1,1,3,1,0,0,16,79,68.86900000000051,20,291,4,6,L,0.23627054794520544,0.061,0.122,0.122
27,1,2,0,0,0,0,0,5,101,57,95,4.330999999999997,0.6709999999999998,5.428999999999996,0.427,12,3,13,3,17,3,20,3,0,0,15,91,20.922999999999984,17,94,3.75,6,L,0.22751351351351348,0.22366666666666665,0.27144999999999997,0.14233333333333334
27,2,3,0,0,0,0,0,44,7,66,43,1.646999999999999,2.3179999999999983,1.2199999999999993,1.2809999999999993,11,6,6,5,15,7,6,6,0,0,20,67,11.040999999999991,15,45,5,6,L,0.21146666666666664,0.33114285714285707,0.2033333333333333,0.2135
27,2,4,0,0,0,0,0,74,59,18,83,0.7929999999999997,4.7579999999999965,0.061,1.2809999999999993,2,14,1,6,2,23,1,7,0,0,16,111,9.027999999999993,15,54,4,6,L,0.175375,0.2068695652173913,0.061,0.183
27,3,5,0,0,0,0,0,22,19,14,85,1.463999999999999,0.305,3.476999999999997,2.9889999999999977,8,2,11,15,9,2,14,20,0,0.5,39,114,23.057999999999982,19,113,5.25,6,L,0.20099999999999998,0.1525,0.24835714285714283,0.14945
27,3,6,0,0,0,0,0,107,10,82,74,0.366,0.122,0.9149999999999996,0.183,3,1,3,2,3,1,3,2,0,0,14,45,59.96299999999995,20,277,3.5,6,L,0.21546071428571426,0.122,0.30499999999999994,0.0915
27,4,7,0,0,0,0,0,63,71,38,47,1.8909999999999987,2.9889999999999977,1.4029999999999991,0.183,10,10,8,2,11,10,9,2,0,0,18,12,9.637999999999993,18,51,4.5,6,L,0.18595161290322582,0.29889999999999994,0.15588888888888888,0.0915
27,4,8,0,0,0,0,0,28,13,25,21,1.7689999999999988,0.488,5.611999999999996,0.183,8,2,14,1,9,2,27,1,0,0,22,59,16.469999999999988,16,76,5.5,6,L,0.21457647058823529,0.244,0.20785185185185184,0.183
27,5,9,0,0,0,0,0,13,36,90,65,16.34799999999999,0.305,0.183,0.061,17,3,2,1,89,3,2,1,0,0,18,31,7.075999999999994,14,30,4.5,6,L,0.19684033613445376,0.10166666666666667,0.0915,0.061
27,5,10,0,0,0,0,0,47,5,50,116,0.8539999999999996,5.306999999999996,6.282999999999995,0.061,6,12,14,1,9,20,27,1,0,0,17,57,7.380999999999994,15,35,4.25,6,L,0.18715909090909091,0.26535,0.2327037037037037,0.061
28,1,1,0,0,0,0,0,85,102,88,107,0.488,3.2939999999999974,4.452999999999997,0.244,3,13,13,1,3,19,22,1,0,0,10,100,11.71199999999999,17,56,2.5,6,L,0.20677966101694914,0.17336842105263156,0.2024090909090909,0.244
28,1,2,0,0,0,0,0,109,53,22,19,0.305,0.244,0.427,1.1589999999999994,3,2,4,3,3,2,4,4,0,0,18,120,28.852999999999977,18,137,4.5,6,L,0.20827142857142855,0.122,0.10675,0.28974999999999995
28,2,3,0,0,0,0,0,25,32,36,24,4.879999999999996,2.3179999999999983,0.6099999999999999,0.6099999999999999,15,11,5,6,22,12,5,6,0,0.5,36,33,18.909999999999986,20,93,5.25,6,L,0.2068695652173913,0.19316666666666665,0.122,0.10166666666666667
28,2,4,0,0,0,0,0,11,6,84,39,0.8539999999999996,2.622999999999998,15.737999999999987,0.305,5,13,17,2,5,14,62,2,0,0,20,80,12.07799999999999,18,56,5,6,L,0.212,0.18735714285714286,0.25383870967741934,0.1525
28,3,5,0,0,0,0,0,96,25,30,93,0.061,0.122,1.2199999999999993,0.6099999999999999,1,1,7,2,1,1,8,2,0,0,16,100,59.35299999999995,20,268,4,6,L,0.2208698884758364,0.122,0.1525,0.305
28,3,6,0,0,0,0,0,19,76,55,15,1.585999999999999,6.709999999999995,5.062999999999996,1.8299999999999987,7,15,14,9,8,27,19,9,0,0,19,41,13.602999999999989,18,65,4.75,6,L,0.20806849315068493,0.24851851851851847,0.2664736842105263,0.20333333333333334
28,4,7,0,0,0,0,0,37,4,109,45,0.427,0.488,0.183,0.6099999999999999,2,4,2,4,2,4,2,4,0,0,18,90,36.41699999999997,20,170,4.5,6,L,0.21420930232558139,0.122,0.0915,0.1525
28,4,8,0,0,0,0,0,79,15,13,30,0.061,1.1589999999999994,0.488,1.8909999999999987,1,9,1,11,1,9,1,13,0,0,20,16,18.360999999999986,17,81,5,6,L,0.22465853658536583,0.12877777777777777,0.488,0.14546153846153845
28,5,9,0,0,0,0,0,21,14,69,33,2.3179999999999983,2.805999999999998,2.683999999999998,0.305,7,10,12,2,9,12,17,2,0,0,21,25,31.536999999999974,19,128,5.25,6,L,0.24711678832116785,0.2338333333333333,0.15788235294117647,0.1525
28,5,10,0,0,0,0,0,3,59,37,7,5.001999999999996,12.56599999999999,0.366,2.0129999999999986,16,16,2,9,26,43,2,9,0,0,21,88,11.71199999999999,18,64,5.25,6,L,0.1857111111111111,0.29223255813953486,0.183,0.22366666666666662
29,1,1,0,0,0,0,0,32,3,87,52,6.221999999999995,1.7079999999999989,9.881999999999993,1.7689999999999988,14,8,17,9,33,9,41,11,0,0,18,92,11.223999999999991,17,58,4.5,6,L,0.1917142857142857,0.18977777777777777,0.2410243902439024,0.1608181818181818
29,1,2,0,0,0,0,0,114,109,63,119,10.369999999999992,0.7319999999999998,0.9149999999999996,5.916999999999995,15,3,6,16,44,3,6,35,0,0.5,16,15,8.478999999999994,16,40,2.5,6,L,0.22439285714285712,0.244,0.1525,0.16905714285714285
29,2,3,0,0,0,0,0,110,80,75,11,0.244,3.2329999999999974,0.6709999999999998,0.6709999999999998,1,11,4,4,1,16,4,4,0,0,14,35,27.08399999999998,20,131,3.5,6,L,0.207030303030303,0.20206249999999998,0.16775,0.16775
29,2,4,0,0,0,0,0,17,85,99,22,2.3179999999999983,23.362999999999982,0.5489999999999999,0.488,12,18,3,2,16,111,4,2,0,0,17,102,9.515999999999993,17,39,4.25,6,L,0.21516363636363636,0.21047747747747747,0.13724999999999998,0.244
29,3,5,0,0,0,0,0,91,85,64,92,0.305,1.3419999999999992,0.366,1.0369999999999995,2,8,1,4,2,9,1,4,0,0.5,22,6,31.475999999999974,20,141,3.25,6,L,0.22224475524475523,0.1491111111111111,0.366,0.25925
29,3,6,0,0,0,0,0,58,104,38,17,0.6709999999999998,0.6709999999999998,1.8299999999999987,1.0979999999999994,4,3,6,6,4,4,7,6,0,0,17,83,19.641999999999985,17,75,4.25,6,L,0.257126582278481,0.16775,0.2614285714285714,0.183
29,4,7,0,0,0,0,0,31,76,19,71,7.441999999999994,1.2809999999999993,0.122,1.9519999999999986,16,8,2,6,38,8,2,8,0,0,18,24,11.650999999999991,19,56,4.5,6,L,0.20311702127659573,0.160125,0.061,0.244
29,4,8,0,0,0,0,0,12,4,42,6,2.9279999999999977,0.5489999999999999,0.122,0.183,14,4,1,2,16,4,1,2,0,0.5,41,48,13.663999999999989,16,57,5.75,6,L,0.2272876712328767,0.13724999999999998,0.122,0.0915
29,5,9,0,0,0,0,0,16,19,48,40,0.488,11.89499999999999,1.585999999999999,0.244,4,18,5,2,4,63,6,2,0,0,22,102,7.380999999999994,15,32,5.5,6,L,0.21858333333333332,0.1888095238095238,0.2643333333333333,0.122
29,5,10,0,0,0,0,0,117,51,58,80,1.2809999999999993,2.744999999999998,4.025999999999997,1.646999999999999,6,13,12,6,6,17,18,6,0,0,13,4,22.874999999999982,16,105,3.25,6,L,0.2176216216216216,0.16147058823529412,0.22366666666666665,0.27449999999999997
30,1,1,0,0,0,0,0,110,30,13,117,1.646999999999999,2.805999999999998,8.112999999999994,2.1959999999999984,7,8,16,9,8,9,45,11,0,0,15,62,13.724999999999989,18,73,3.75,6,L,0.18977777777777777,0.31177777777777776,0.1802888888888889,0.19963636363636364
30,1,2,0,0,0,0,0,3,52,97,108,0.366,0.427,0.244,0.488,2,3,1,3,2,3,1,3,0,0,14,39,21.837999999999983,19,96,3.5,6,L,0.22657142857142856,0.14233333333333334,0.244,0.16266666666666665
30,2,3,0,0,0,0,0,8,32,77,54,1.0979999999999994,0.8539999999999996,0.244,0.488,5,3,1,1,5,3,1,1,0,0,18,99,16.652999999999988,20,73,4.5,6,L,0.22757692307692307,0.2846666666666667,0.244,0.488
30,2,4,0,0,0,0,0,120,13,22,86,2.1349999999999985,4.452999999999997,16.28699999999999,0.427,8,10,17,1,13,17,76,1,0,0,17,85,7.441999999999994,15,34,4.25,6,L,0.2037659574468085,0.2619411764705882,0.21430263157894736,0.427
30,3,5,0,0,0,0,0,5,4,37,11,0.7929999999999997,23.179999999999982,1.0979999999999994,0.061,4,18,2,1,4,89,3,1,0,0.5,41,106,9.881999999999993,20,63,5.75,6,L,0.15932835820895522,0.26044943820224714,0.36599999999999994,0.061
30,3,6,0,0,0,0,0,50,18,15,32,1.4029999999999991,0.5489999999999999,3.2939999999999974,0.488,7,4,13,2,8,4,17,2,0,0,21,85,15.493999999999987,15,76,5.25,6,L,0.2011547619047619,0.13724999999999998,0.19376470588235292,0.244
30,4,7,0,0,0,0,0,20,79,18,63,0.183,0.244,2.8669999999999978,0.366,1,2,11,1,1,2,14,1,0,0,19,22,21.044999999999984,18,102,4.75,6,L,0.20609708737864077,0.122,0.2047857142857143,0.366
30,4,8,0,0,0,0,0,30,96,6,2,3.598999999999997,0.7929999999999997,0.061,1.4029999999999991,12,2,1,7,18,2,1,8,0,0,20,27,9.698999999999993,19,63,5,6,L,0.16417283950617284,0.3964999999999999,0.061,0.175375
30,5,9,0,0,0,0,0,42,39,90,86,0.244,0.183,0.061,0.122,2,1,1,1,2,1,1,1,0,0,16,40,56.729999999999954,20,259,4,6,L,0.21829118773946357,0.183,0.061,0.122
30,5,10,0,0,0,0,0,12,66,11,119,8.844999999999994,1.3419999999999992,0.366,0.305,12,5,2,3,41,5,2,3,0,0,18,3,8.600999999999994,13,39,4.5,6,L,0.218075,0.26839999999999997,0.183,0.10166666666666667
31,1,1,0,0,0,0,0,120,111,95,65,3.2329999999999974,0.122,0.488,0.5489999999999999,14,1,4,1,19,1,4,1,0,0,11,113,12.56599999999999,19,57,2.75,6,L,0.20788157894736842,0.122,0.122,0.5489999999999999
31,1,2,0,0,0,0,0,97,4,57,28,0.122,0.6709999999999998,1.463999999999999,0.427,2,1,8,2,2,1,11,2,0,0,17,55,31.597999999999974,20,144,4.25,6,L,0.21726027397260272,0.6709999999999998,0.1330909090909091,0.2135
31,2,3,0,0,0,0,0,30,96,57,31,1.0369999999999995,0.7929999999999997,0.6099999999999999,0.9759999999999995,5,2,4,4,6,2,4,4,0,0,17,52,29.889999999999976,19,134,4.25,6,L,0.22090714285714283,0.39649999999999996,0.1525,0.244
31,2,4,0,0,0,0,0,101,43,39,48,0.488,1.3419999999999992,0.244,0.366,2,5,2,1,2,6,2,1,0,0.5,32,105,15.371999999999987,15,64,4.25,6,L,0.2403030303030303,0.22366666666666665,0.122,0.366
31,3,5,0,0,0,0,0,75,120,41,16,1.0369999999999995,2.683999999999998,0.244,1.3419999999999992,8,12,2,7,8,16,2,7,0,0,16,68,23.48499999999998,18,104,4,6,L,0.21894642857142854,0.16775,0.122,0.1917142857142857
31,3,6,0,0,0,0,0,31,9,29,105,0.5489999999999999,0.6099999999999999,8.234999999999994,9.088999999999993,5,3,15,16,5,3,38,44,0,0,18,3,7.9299999999999935,18,43,4.5,6,L,0.17664583333333334,0.20333333333333334,0.21671052631578946,0.2065681818181818
31,4,7,0,0,0,0,0,1,83,37,11,2.500999999999998,4.086999999999997,0.6099999999999999,4.269999999999997,9,15,3,14,11,28,4,25,0,0,20,81,4.635999999999997,15,28,5,6,L,0.183,0.1459642857142857,0.1525,0.1708
31,4,8,0,0,0,0,0,85,31,26,22,0.244,0.6099999999999999,0.488,0.9149999999999996,1,3,2,4,1,3,2,4,0,0,19,96,47.39699999999996,20,214,4.75,6,L,0.2215860465116279,0.20333333333333334,0.244,0.22874999999999995
31,5,9,0,0,0,0,0,5,71,4,113,0.427,2.0739999999999985,11.83399999999999,0.8539999999999996,3,8,17,3,3,10,47,3,0,0,18,10,87.71800000000269,20,356,4.5,6,L,0.24552924791086347,0.2074,0.25178723404255315,0.28466666666666657
31,5,10,0,0,0,0,0,44,16,94,98,3.2939999999999974,0.9149999999999996,11.589999999999991,0.122,15,3,17,2,22,4,54,2,0,0,16,87,5.489999999999996,13,24,4,6,L,0.19095652173913044,0.22875,0.21462962962962961,0.061
32,1,1,0,0,0,0,0,72,114,94,39,1.1589999999999994,0.122,1.7689999999999988,1.2809999999999993,8,1,6,6,8,1,7,7,0,0,14,3,35.318999999999974,20,165,3.5,6,L,0.21085549132947976,0.122,0.2527142857142857,0.183
32,1,2,0,0,0,0,0,17,28,100,77,17.872999999999987,0.7319999999999998,0.061,0.061,18,4,1,1,81,4,1,1,0,0,16,104,9.881999999999993,14,40,4,6,L,0.22938016528925617,0.183,0.061,0.061
32,2,3,0,0,0,0,0,45,6,91,109,0.9759999999999995,3.720999999999997,5.489999999999996,1.646999999999999,5,15,16,6,5,18,28,6,0,0,16,72,21.288999999999984,19,125,4,6,L,0.17126923076923076,0.2067222222222222,0.19607142857142856,0.27449999999999997
32,2,4,0,0,0,0,0,13,78,99,30,5.855999999999995,0.366,0.8539999999999996,0.122,17,3,5,1,30,3,5,1,0,0,16,14,10.308999999999992,19,51,4,6,L,0.19956790123456788,0.122,0.1708,0.122
32,3,5,0,0,0,0,0,66,13,17,18,2.1349999999999985,0.366,1.0979999999999994,0.427,10,2,4,5,11,2,4,5,0,0.5,40,39,12.62699999999999,17,65,5.5,6,L,0.19423684210526315,0.183,0.27449999999999997,0.0854
32,3,6,0,0,0,0,0,94,92,26,7,5.306999999999996,0.366,2.439999999999998,1.9519999999999986,13,1,8,9,26,1,12,10,0,0,17,5,5.489999999999996,14,29,4.25,6,L,0.1963090909090909,0.366,0.2033333333333333,0.19519999999999998
32,4,7,0,0,0,0,0,28,26,104,51,6.282999999999995,2.1959999999999984,2.622999999999998,0.9759999999999995,15,8,12,3,25,9,12,3,0,0,16,18,9.149999999999993,16,49,4,6,L,0.20855405405405403,0.244,0.21858333333333332,0.3253333333333333
32,4,8,0,0,0,0,0,114,75,7,47,2.744999999999998,3.476999999999997,2.683999999999998,0.6099999999999999,13,15,13,3,16,18,16,3,0,0,16,120,9.210999999999993,19,47,4,6,L,0.18977777777777777,0.19316666666666665,0.16774999999999998,0.20333333333333334
32,5,9,0,0,0,0,0,11,2,6,59,1.8909999999999987,0.7929999999999997,5.7339999999999955,11.650999999999991,8,3,9,16,9,3,13,47,0,0.5,40,4,6.953999999999994,19,39,5.5,6,L,0.18427083333333333,0.2643333333333333,0.4410769230769229,0.24789361702127657
32,5,10,0,0,0,0,0,15,73,16,70,0.244,0.305,0.366,0.5489999999999999,1,2,4,3,1,2,4,3,0,0,19,17,38.30799999999997,20,155,4.75,6,L,0.2471282051282051,0.1525,0.0915,0.183
33,1,1,0,0,0,0,0,95,30,6,7,2.8669999999999978,0.7929999999999997,0.7929999999999997,0.183,15,3,1,2,18,3,1,2,0,0,20,31,18.909999999999986,19,100,5,6,L,0.18455084745762712,0.2643333333333333,0.7929999999999997,0.0915
33,1,2,0,0,0,0,0,72,20,37,79,0.061,0.366,0.7929999999999997,1.7689999999999988,1,1,5,7,1,1,5,7,0,0,18,45,93.08600000000331,20,352,4.5,6,L,0.2638725212464589,0.366,0.1586,0.2527142857142857
33,2,3,0,0,0,0,0,52,48,118,114,1.0369999999999995,1.7079999999999989,2.622999999999998,0.6709999999999998,3,5,8,3,4,7,12,4,0,0,13,112,12.13899999999999,19,63,3.25,6,L,0.19665671641791044,0.244,0.21858333333333332,0.16775
33,2,4,0,0,0,0,0,18,25,66,20,6.526999999999995,0.366,0.061,0.122,12,2,1,1,30,2,1,1,0,0,21,19,9.088999999999993,17,48,5.25,6,L,0.2002051282051282,0.183,0.061,0.122
33,3,5,0,0,0,0,0,99,33,16,20,1.3419999999999992,0.9759999999999995,2.3789999999999982,0.8539999999999996,7,6,9,5,7,7,12,5,0,0,19,19,6.648999999999995,13,34,4.75,6,L,0.19490243902439025,0.13942857142857143,0.19824999999999998,0.1708
33,3,6,0,0,0,0,0,53,41,48,47,0.9759999999999995,1.7079999999999989,0.8539999999999996,2.439999999999998,5,10,5,8,5,10,5,10,0,0.5,34,60,19.519999999999985,19,93,4.75,6,L,0.20914285714285713,0.1708,0.1708,0.24399999999999994
33,4,7,0,0,0,0,0,70,68,17,32,0.305,0.061,0.183,8.783999999999994,3,1,1,13,3,1,1,33,0,0,19,14,17.140999999999988,17,67,4.75,6,L,0.24922857142857138,0.061,0.183,0.26618181818181813
33,4,8,0,0,0,0,0,10,3,1,60,0.488,1.646999999999999,6.465999999999995,1.0369999999999995,1,7,14,6,1,8,25,6,0,0.5,40,58,15.615999999999987,19,94,5.5,6,L,0.1695157894736842,0.205875,0.25864,0.17283333333333334
33,5,9,0,0,0,0,0,7,3,92,71,2.2569999999999983,4.269999999999997,29.462999999999976,0.6099999999999999,7,11,17,3,9,14,139,3,0,0,19,36,7.807999999999994,14,34,4.75,6,L,0.23406976744186045,0.30499999999999994,0.2119640287769784,0.20333333333333334
33,5,10,0,0,0,0,0,39,19,17,78,2.1959999999999984,2.9279999999999977,4.879999999999996,2.500999999999998,12,9,16,8,14,12,30,11,0,0,20,46,10.552999999999992,18,55,5,6,L,0.184768115942029,0.244,0.16266666666666665,0.22736363636363635
34,1,1,0,0,0,0,0,1,41,50,54,12.13899999999999,6.404999999999995,0.488,2.2569999999999983,16,16,3,8,42,22,3,9,0,0,19,94,6.648999999999995,14,27,4.75,6,L,0.2722898550724637,0.2911363636363636,0.16266666666666665,0.2507777777777777
34,1,2,0,0,0,0,0,73,75,76,78,0.061,0.6099999999999999,1.463999999999999,0.6099999999999999,1,4,6,5,1,5,6,5,0,1,36,119,18.726999999999986,18,82,3,6,L,0.22636144578313253,0.122,0.244,0.122
34,2,3,0,0,0,0,0,75,55,102,56,0.5489999999999999,3.0499999999999976,0.183,2.1349999999999985,3,13,1,9,3,15,1,12,0,0,13,44,20.007999999999985,20,111,3.25,6,L,0.18032456140350878,0.20333333333333334,0.183,0.17791666666666667
34,2,4,0,0,0,0,0,17,90,61,112,0.122,0.366,1.585999999999999,0.8539999999999996,1,1,8,5,1,1,11,5,0,0,15,114,12.93199999999999,17,58,3.75,6,L,0.2212542372881356,0.366,0.1441818181818182,0.1708
34,3,5,0,0,0,0,0,67,48,41,2,0.183,0.122,0.9759999999999995,0.9759999999999995,2,2,5,5,2,2,5,6,0,0,20,44,31.841999999999974,20,152,5,6,L,0.20795454545454545,0.061,0.19519999999999998,0.16266666666666665
34,3,6,0,0,0,0,0,17,22,112,119,2.0739999999999985,1.7689999999999988,2.439999999999998,0.061,10,5,11,1,11,6,13,1,0,0,16,91,17.445999999999987,17,80,4,6,L,0.21450549450549447,0.2948333333333332,0.18769230769230769,0.061
34,4,7,0,0,0,0,0,41,10,40,9,0.183,0.8539999999999996,0.305,1.2199999999999993,1,2,2,5,1,2,2,5,0,0,22,45,57.76699999999995,19,226,5.5,6,L,0.25528634361233477,0.427,0.1525,0.244
34,4,8,0,0,0,0,0,119,96,93,95,0.366,0.122,0.366,1.1589999999999994,1,1,2,5,1,1,2,5,0,0.5,20,32,27.571999999999978,18,116,2.75,6,L,0.23878632478632475,0.122,0.183,0.2318
34,5,9,0,0,0,0,0,76,8,56,35,23.78999999999998,0.122,0.366,1.524999999999999,17,1,2,10,99,1,3,10,0,0,18,5,3.720999999999997,10,21,4.5,6,L,0.22925833333333331,0.122,0.122,0.1525
34,5,10,0,0,0,0,0,37,20,113,114,0.183,8.051999999999994,3.903999999999997,1.1589999999999994,2,17,15,7,2,34,17,8,0,0,15,92,12.99299999999999,19,71,3.75,6,L,0.1804931506849315,0.23682352941176468,0.22964705882352937,0.144875
35,1,1,0,0,0,0,0,39,40,8,42,1.0979999999999994,0.5489999999999999,0.6099999999999999,0.5489999999999999,8,3,2,2,9,3,2,2,0,0.5,36,92,39.71099999999997,20,180,5.25,6,L,0.2159206349206349,0.183,0.305,0.27449999999999997
35,1,2,0,0,0,0,0,16,25,18,53,7.685999999999994,0.122,1.7689999999999988,20.678999999999984,15,1,9,15,33,1,9,81,0,0,21,54,9.088999999999993,15,39,5.25,6,L,0.2329861111111111,0.122,0.19655555555555554,0.2552962962962963
35,2,3,0,0,0,0,0,13,57,24,60,9.210999999999993,30.377999999999975,0.305,0.5489999999999999,18,18,2,2,37,112,2,2,0,0,20,18,10.918999999999992,18,51,5,6,L,0.22874999999999998,0.2712321428571428,0.1525,0.27449999999999997
35,2,4,0,0,0,0,0,32,28,11,72,1.585999999999999,1.7079999999999989,0.305,1.0979999999999994,8,11,1,6,8,13,1,6,0,0,20,98,32.32999999999998,20,139,5,6,L,0.23072108843537412,0.13138461538461538,0.305,0.183
35,3,5,0,0,0,0,0,20,107,31,106,0.183,0.305,0.366,3.1109999999999975,1,2,3,9,1,2,3,12,0,0,15,21,21.532999999999983,19,96,3.75,6,L,0.22387628865979378,0.1525,0.122,0.2592499999999999
35,3,6,0,0,0,0,0,4,119,2,68,9.881999999999993,0.9149999999999996,3.537999999999997,10.369999999999992,18,5,10,16,44,5,16,45,0,0,18,1,5.489999999999996,11,24,4.5,6,L,0.22605882352941176,0.183,0.22112499999999996,0.23044444444444442
35,4,7,0,0,0,0,0,24,22,21,74,56.363999999999955,1.9519999999999986,5.489999999999996,0.061,19,7,16,1,243,9,34,1,0,0.5,39,20,6.526999999999995,12,36,5.25,6,L,0.22541577060931897,0.21688888888888888,0.16147058823529412,0.061
35,4,8,0,0,0,0,0,3,2,50,37,1.7079999999999989,6.221999999999995,0.122,0.061,4,17,2,1,5,27,2,1,0,0,21,12,52.21599999999996,20,234,5.25,6,L,0.22562343096234308,0.23044444444444442,0.061,0.061
35,5,9,0,0,0,0,0,40,10,9,1,0.122,6.282999999999995,1.585999999999999,1.585999999999999,1,12,6,5,1,20,6,5,0,0.5,41,46,26.47399999999998,17,99,5.75,6,L,0.26596,0.31415,0.2643333333333333,0.3171999999999999
35,5,10,0,0,0,0,0,67,102,84,20,2.805999999999998,1.2809999999999993,0.183,0.427,12,7,1,3,15,7,1,3,0,0,15,33,12.99299999999999,18,69,3.75,6,L,0.18808333333333332,0.183,0.183,0.14233333333333334
36,1,1,0,0,0,0,0,39,89,58,6,0.366,1.1589999999999994,0.061,0.305,3,8,1,2,3,9,1,2,0,0,18,57,66.24600000000021,20,290,4.5,5,L,0.2273447098976109,0.12877777777777777,0.061,0.1525
36,1,2,0,0,0,0,0,33,19,14,13,0.6709999999999998,0.8539999999999996,4.269999999999997,14.700999999999988,2,3,14,16,2,3,18,70,0,0.5,41,97,45.627999999999965,20,207,5.75,5,L,0.22152631578947365,0.2846666666666666,0.23722222222222222,0.2100142857142857
36,2,3,0,0,0,0,0,119,44,6,38,0.305,0.9149999999999996,0.8539999999999996,0.488,2,6,5,2,2,6,5,2,0,0,18,75,28.120999999999977,20,133,4.5,5,L,0.21056296296296295,0.1525,0.1708,0.244
36,2,4,0,0,0,0,0,85,61,67,108,0.061,0.9149999999999996,0.061,0.366,1,5,1,1,1,5,1,1,0,0,13,94,56.363999999999955,20,270,3.25,5,L,0.20821033210332102,0.183,0.061,0.366
36,3,5,0,0,0,0,0,29,33,16,117,0.6709999999999998,1.0369999999999995,1.2809999999999993,8.539999999999994,3,3,6,14,3,3,7,39,0,0,18,50,22.325999999999983,17,113,4.5,5,L,0.19824999999999998,0.3456666666666665,0.183,0.21897435897435896
36,3,6,0,0,0,0,0,65,1,64,72,4.391999999999997,1.8299999999999987,28.364999999999977,0.427,13,8,17,2,25,11,129,3,0,0.5,30,11,7.685999999999994,14,37,4.5,5,L,0.19480645161290322,0.16636363636363635,0.21988372093023253,0.14233333333333334
36,4,7,0,0,0,0,0,10,7,29,116,0.8539999999999996,7.258999999999994,1.2809999999999993,0.305,4,17,4,1,5,34,4,1,0,0,19,78,21.654999999999983,20,98,4.75,5,L,0.21853398058252424,0.21349999999999997,0.32025,0.305
36,4,8,0,0,0,0,0,47,24,44,87,11.589999999999991,0.244,0.9759999999999995,0.6099999999999999,18,3,5,4,60,3,5,5,0,0,19,22,18.116999999999987,17,85,4.75,5,L,0.2048758620689655,0.08133333333333333,0.19519999999999998,0.122
37,1,1,0,0,0,0,0,120,95,45,13,2.561999999999998,0.5489999999999999,0.244,0.6709999999999998,12,2,2,1,12,2,2,1,0,0,16,62,15.493999999999987,19,72,4,6,L,0.21495238095238095,0.27449999999999997,0.122,0.6709999999999998
37,1,2,0,0,0,0,0,30,29,7,81,0.6099999999999999,0.9149999999999996,1.585999999999999,0.6709999999999998,2,5,5,3,2,5,6,3,0,0,19,53,32.939999999999976,20,145,4.75,6,L,0.22823129251700677,0.183,0.2643333333333333,0.22366666666666665
37,2,3,0,0,0,0,0,82,3,120,4,7.502999999999994,0.305,0.061,0.6099999999999999,18,2,1,3,42,2,1,3,0,0,17,115,8.966999999999993,18,54,4.25,6,L,0.17156249999999998,0.1525,0.061,0.20333333333333334
37,2,4,0,0,0,0,0,21,56,108,100,1.463999999999999,5.916999999999995,0.061,3.3549999999999973,11,15,1,13,11,28,1,16,0,0,14,49,13.41999999999999,16,63,3.5,6,L,0.20113513513513512,0.21132142857142855,0.061,0.20968749999999997
37,3,5,0,0,0,0,0,43,66,17,14,1.0369999999999995,4.513999999999997,0.7929999999999997,1.0979999999999994,4,17,3,6,5,23,3,6,0,0,21,97,19.336999999999986,20,106,5.25,6,L,0.18354954954954955,0.19626086956521738,0.2643333333333333,0.183
37,3,6,0,0,0,0,0,57,89,10,55,6.770999999999995,0.061,0.427,2.1959999999999984,16,1,2,6,35,1,2,9,0,0,17,5,4.269999999999997,14,21,4.25,6,L,0.19716071428571427,0.061,0.2135,0.244
37,4,7,0,0,0,0,0,2,39,41,8,4.879999999999996,4.513999999999997,1.4029999999999991,0.8539999999999996,14,15,6,3,28,25,7,4,0,0,22,111,7.807999999999994,17,41,5.5,6,L,0.18388405797101448,0.18056,0.20042857142857143,0.2135
37,4,8,0,0,0,0,0,50,95,22,17,0.488,0.6709999999999998,0.9149999999999996,0.183,4,3,5,1,4,3,7,1,0,0,19,30,8.173999999999994,16,53,4.75,6,L,0.15196491228070175,0.22366666666666665,0.1307142857142857,0.183
37,5,9,0,0,0,0,0,15,83,113,56,1.0369999999999995,3.659999999999997,1.2199999999999993,1.2809999999999993,7,13,8,4,7,21,10,5,0,0,15,13,11.040999999999991,17,60,3.75,6,L,0.1802686567164179,0.17428571428571427,0.122,0.2562
37,5,10,0,0,0,0,0,105,43,12,96,0.244,0.7929999999999997,0.244,0.7319999999999998,2,6,2,3,2,7,2,3,0,0,16,97,16.469999999999988,17,84,4,6,L,0.19434883720930232,0.11328571428571428,0.122,0.244
38,1,1,0,0,0,0,0,2,70,65,85,3.537999999999997,7.624999999999994,1.2199999999999993,1.4029999999999991,13,16,8,9,17,32,10,10,0,0,17,110,13.35899999999999,20,58,4.25,6,L,0.22529333333333332,0.23828124999999997,0.122,0.1403
38,1,2,0,0,0,0,0,46,45,37,73,0.7319999999999998,0.305,0.427,0.244,4,3,1,1,4,3,1,1,0,0.5,33,59,44.346999999999966,19,197,4.5,6,L,0.224273631840796,0.10166666666666667,0.427,0.244
38,2,3,0,0,0,0,0,107,36,25,5,0.9149999999999996,0.6099999999999999,0.427,0.366,7,3,3,3,7,3,3,3,0,0,18,97,27.327999999999978,20,136,4.5,6,L,0.1975034965034965,0.20333333333333334,0.14233333333333334,0.122
38,2,4,0,0,0,0,0,96,40,41,22,1.2809999999999993,2.1959999999999984,0.488,0.5489999999999999,6,8,3,4,6,10,3,4,0,0,19,53,25.74199999999998,19,125,4.75,6,L,0.2062824427480916,0.2196,0.16266666666666665,0.13724999999999998
38,3,5,0,0,0,0,0,47,45,11,5,0.122,0.244,2.3179999999999983,0.366,1,1,5,2,1,1,5,2,0,0,22,37,35.989999999999974,19,168,5.5,6,L,0.21368047337278104,0.244,0.46359999999999985,0.183
38,3,6,0,0,0,0,0,101,95,21,103,16.40899999999999,2.3789999999999982,0.244,1.0979999999999994,19,8,2,6,91,10,2,6,0,0,13,13,8.966999999999993,14,43,3.25,6,L,0.1893731343283582,0.2379,0.122,0.183
38,4,7,0,0,0,0,0,6,32,30,99,2.1349999999999985,2.1349999999999985,0.6099999999999999,1.463999999999999,11,8,1,6,12,10,1,6,0,0,18,50,14.395999999999988,18,69,4.5,6,L,0.20408641975308642,0.2135,0.6099999999999999,0.244
38,4,8,0,0,0,0,0,71,63,70,91,1.463999999999999,1.524999999999999,1.4029999999999991,0.7929999999999997,8,12,4,3,8,12,4,3,0,0.5,27,47,10.308999999999992,20,64,3.75,6,L,0.16351388888888888,0.12708333333333333,0.3507499999999999,0.26433333333333325
38,5,9,0,0,0,0,0,93,20,55,17,0.183,0.183,5.367999999999996,0.122,2,1,13,1,2,1,18,1,0,0,19,18,25.37599999999998,19,109,4.75,6,L,0.23026126126126123,0.183,0.29822222222222217,0.122
38,5,10,0,0,0,0,0,46,10,39,1,0.305,0.6709999999999998,1.4029999999999991,1.8299999999999987,1,4,5,5,1,4,5,5,0,0,22,11,27.937999999999978,20,140,5.5,6,L,0.2003049645390071,0.16775,0.2806,0.36599999999999994
39,1,1,0,0,0,0,0,68,34,63,111,2.3179999999999983,3.1109999999999975,1.9519999999999986,3.903999999999997,8,10,7,12,9,15,8,17,0,0,15,110,13.724999999999989,15,54,3.75,6,L,0.2546507936507936,0.2074,0.244,0.2296470588235294
39,1,2,0,0,0,0,0,59,105,82,52,0.305,0.061,0.427,0.6709999999999998,1,1,2,3,1,1,2,3,0,0,13,104,61.24399999999995,20,248,3.25,6,L,0.24718473895582327,0.061,0.2135,0.22366666666666665
39,2,3,0,0,0,0,0,66,81,39,76,0.061,1.0979999999999994,0.183,0.427,1,4,2,3,1,4,2,3,0,0,15,14,14.395999999999988,17,85,3.75,6,L,0.1681046511627907,0.27449999999999997,0.0915,0.14233333333333334
39,2,4,0,0,0,0,0,116,111,110,54,0.061,0.183,0.061,0.061,1,1,1,1,1,1,1,1,0,0.5,16,29,67.52700000000036,20,291,2.5,6,L,0.23146575342465753,0.183,0.061,0.061
39,3,5,0,0,0,0,0,56,41,48,47,1.9519999999999986,1.7079999999999989,2.3789999999999982,0.305,7,8,10,2,8,8,12,2,0,0.5,34,92,9.393999999999993,17,48,4.75,6,L,0.20260714285714285,0.2135,0.19824999999999998,0.1525
39,3,6,0,0,0,0,0,64,14,19,22,5.672999999999996,10.918999999999992,0.305,0.061,17,18,2,1,33,49,2,1,0,0.5,40,115,7.197999999999994,20,36,5.5,6,L,0.18653623188405796,0.22283673469387752,0.1525,0.061
39,4,7,0,0,0,0,0,19,54,23,81,0.7929999999999997,0.244,0.9759999999999995,0.5489999999999999,5,2,6,5,5,2,6,5,0,0,19,73,14.395999999999988,19,74,4.75,6,L,0.1922658227848101,0.122,0.16266666666666665,0.1098
39,4,8,0,0,0,0,0,37,72,43,64,0.305,3.1719999999999975,0.6709999999999998,3.3549999999999973,2,14,2,7,2,18,3,10,0,0,18,39,6.709999999999995,16,39,4.5,6,L,0.17109756097560974,0.17622222222222222,0.22366666666666665,0.3354999999999999
39,5,9,0,0,0,0,0,8,66,104,99,0.244,0.8539999999999996,0.122,0.5489999999999999,1,5,1,3,1,5,1,3,0,0,14,26,34.647999999999975,19,152,3.5,6,L,0.22805228758169932,0.1708,0.122,0.183
39,5,10,0,0,0,0,0,119,55,76,45,3.720999999999997,1.463999999999999,2.1959999999999984,2.1959999999999984,14,5,11,7,21,6,12,7,0,0,14,82,10.247999999999992,17,52,3.5,6,L,0.19135616438356162,0.24399999999999997,0.183,0.31371428571428567
40,1,1,0,0,0,0,0,117,56,111,26,0.7929999999999997,1.4029999999999991,2.8669999999999978,0.5489999999999999,3,6,13,1,3,7,17,1,0,0,13,53,23.057999999999982,17,85,3.25,6,L,0.27103409090909086,0.20042857142857143,0.1686470588235294,0.5489999999999999
40,1,2,0,0,0,0,0,37,24,64,86,0.7929999999999997,1.7079999999999989,5.245999999999996,0.427,2,7,13,3,2,8,21,3,0,0,18,39,54.716999999999956,20,241,4.5,6,L,0.22843621399176953,0.21349999999999997,0.2498095238095238,0.14233333333333334
40,2,3,0,0,0,0,0,104,97,19,14,2.3179999999999983,0.6709999999999998,0.122,12.56599999999999,6,7,1,15,7,7,1,59,0,0,16,26,12.50499999999999,16,62,4,6,L,0.21482608695652172,0.09585714285714285,0.122,0.2129830508474576
40,2,4,0,0,0,0,0,115,42,39,10,13.23699999999999,0.8539999999999996,2.3789999999999982,0.183,19,2,9,1,81,3,9,1,0,0,18,2,8.478999999999994,14,36,4.5,6,L,0.1856068376068376,0.2846666666666666,0.2643333333333333,0.183
40,3,5,0,0,0,0,0,38,19,15,42,0.6709999999999998,0.061,13.54199999999999,1.4029999999999991,4,1,17,7,4,1,52,7,0,0,22,14,8.539999999999994,17,43,5.5,6,L,0.19597872340425532,0.061,0.26042307692307687,0.20042857142857143
40,3,6,0,0,0,0,0,11,78,9,68,0.183,2.1959999999999984,0.366,0.488,3,7,1,4,3,7,1,4,0,0,19,80,43.858999999999966,18,184,4.75,6,L,0.2355187165775401,0.31371428571428567,0.366,0.122
40,4,7,0,0,0,0,0,6,89,10,93,0.6099999999999999,0.366,0.122,2.805999999999998,2,3,1,8,2,3,1,11,0,0,18,5,10.125999999999992,14,48,4.5,6,L,0.21472,0.122,0.122,0.2550909090909091
40,4,8,0,0,0,0,0,117,13,56,18,3.781999999999997,2.744999999999998,9.698999999999993,0.122,13,10,16,2,21,11,48,2,0,0,18,48,7.746999999999994,16,36,4.5,6,L,0.20226315789473684,0.24954545454545451,0.20206249999999998,0.061
40,5,9,0,0,0,0,0,92,17,36,15,0.183,0.183,2.622999999999998,0.6099999999999999,1,1,7,2,1,1,7,3,0,0,20,70,15.920999999999987,15,65,5,6,L,0.24399999999999997,0.183,0.37471428571428567,0.20333333333333334
40,5,10,0,0,0,0,0,41,12,38,98,0.488,3.1719999999999975,0.7929999999999997,0.9149999999999996,2,7,5,5,2,11,6,5,0,0,18,43,7.9299999999999935,14,37,4.5,6,L,0.21584615384615385,0.2883636363636363,0.13216666666666665,0.183
41,1,1,0,0,0,0,0,108,99,15,104,2.805999999999998,2.9889999999999977,0.305,43.55399999999997,12,11,2,16,13,15,2,189,0,0.5,18,93,10.613999999999992,17,56,3,6,L,0.19449275362318838,0.19926666666666665,0.1525,0.23044444444444442
41,1,2,0,0,0,0,0,38,72,119,42,0.305,4.452999999999997,0.5489999999999999,1.0369999999999995,3,15,4,6,3,19,4,6,0,0,16,79,43.12699999999997,20,203,4,6,L,0.21083495145631065,0.23436842105263153,0.13724999999999998,0.17283333333333334
41,2,3,0,0,0,0,0,50,59,54,86,0.427,0.122,0.6709999999999998,0.9149999999999996,2,2,3,7,2,2,3,7,0,0.5,27,88,46.298999999999964,20,189,3.75,6,L,0.24463874345549735,0.061,0.22366666666666665,0.1307142857142857
41,2,4,0,0,0,0,0,74,67,72,62,1.9519999999999986,0.427,1.3419999999999992,0.305,10,3,8,1,10,3,9,1,0,0.5,27,82,24.33899999999998,20,123,3.75,6,L,0.1976766917293233,0.14233333333333334,0.1491111111111111,0.305
41,3,5,0,0,0,0,0,103,106,46,102,2.805999999999998,1.2809999999999993,0.305,6.587999999999995,8,8,2,14,11,9,2,31,0,0.5,17,66,13.602999999999989,20,70,2.75,6,L,0.20258024691358023,0.14233333333333334,0.1525,0.21251612903225806
41,3,6,0,0,0,0,0,7,11,80,84,2.2569999999999983,0.061,0.122,0.305,6,1,1,3,7,1,1,3,0,0,18,3,9.027999999999993,17,46,4.5,6,L,0.21292452830188677,0.061,0.122,0.10166666666666667
41,4,7,0,0,0,0,0,118,64,38,12,0.488,2.744999999999998,0.7319999999999998,2.8669999999999978,3,11,3,10,3,18,3,13,0,0,17,77,13.785999999999989,15,61,4.25,6,L,0.22303124999999996,0.1525,0.244,0.22053846153846154
41,4,8,0,0,0,0,0,25,60,104,106,1.0979999999999994,0.7929999999999997,2.1349999999999985,3.0499999999999976,6,1,13,11,6,1,18,18,0,0,13,17,21.593999999999983,19,114,3.25,6,L,0.1891,0.7929999999999997,0.11861111111111111,0.16944444444444445
41,5,9,0,0,0,0,0,29,11,31,77,0.9149999999999996,0.5489999999999999,0.7319999999999998,0.244,3,3,4,3,3,3,4,3,0,0,19,78,34.159999999999975,19,148,4.75,6,L,0.2322847682119205,0.183,0.183,0.08133333333333333
41,5,10,0,0,0,0,0,21,44,20,41,1.0369999999999995,3.537999999999997,0.427,0.7319999999999998,3,12,4,4,3,18,5,4,0,0,22,48,16.22599999999999,20,86,5.5,6,L,0.19396629213483146,0.19655555555555554,0.0854,0.183
42,1,1,0,0,0,0,0,95,94,71,8,0.8539999999999996,0.061,0.5489999999999999,0.366,3,1,2,1,3,1,2,1,0,0,16,109,50.81299999999996,20,219,4,6,L,0.2327342342342342,0.061,0.27449999999999997,0.366
42,1,2,0,0,0,0,0,52,56,75,37,0.427,0.122,0.244,0.305,3,1,2,4,3,1,2,4,0,0,16,98,44.651999999999965,20,192,4,6,L,0.23117435897435895,0.122,0.122,0.07625
42,2,3,0,0,0,0,0,37,9,2,79,10.003999999999992,1.8299999999999987,13.602999999999989,6.282999999999995,17,11,17,16,37,13,64,38,0,0,20,41,11.77299999999999,15,46,5,6,L,0.2623734939759036,0.14076923076923076,0.212546875,0.1653421052631579
42,2,4,0,0,0,0,0,29,113,118,31,0.488,0.366,0.305,1.0369999999999995,2,2,2,4,2,2,2,4,0,0,14,92,28.120999999999977,20,134,3.5,6,L,0.21036029411764703,0.183,0.1525,0.25925
42,3,5,0,0,0,0,0,12,5,61,45,18.604999999999986,2.439999999999998,22.264999999999983,0.061,14,6,17,1,80,6,92,1,0,0,21,4,6.648999999999995,15,35,5.25,6,L,0.2196,0.40666666666666657,0.24201086956521736,0.061
42,3,6,0,0,0,0,0,76,20,84,80,0.122,1.2199999999999993,4.879999999999996,1.2199999999999993,2,6,12,7,2,7,19,7,0,0.5,24,13,9.332999999999993,17,52,3.75,6,L,0.17509259259259258,0.1742857142857143,0.25684210526315787,0.1742857142857143
42,4,7,0,0,0,0,0,104,105,30,88,2.439999999999998,0.183,0.305,1.0979999999999994,11,2,3,2,13,2,3,2,0,0,12,12,9.088999999999993,19,57,3,6,L,0.16469999999999999,0.0915,0.10166666666666667,0.5489999999999999
42,4,8,0,0,0,0,0,64,73,43,42,0.5489999999999999,1.1589999999999994,0.6709999999999998,1.2199999999999993,6,4,4,6,7,4,5,7,0,0,17,71,20.495999999999984,18,99,4.25,6,L,0.1985377358490566,0.28975,0.13419999999999999,0.1742857142857143
42,5,9,0,0,0,0,0,1,30,29,4,0.488,14.395999999999988,0.427,0.122,4,18,1,1,4,62,1,1,0,0,22,9,8.417999999999994,14,42,5.5,6,L,0.1936086956521739,0.23219354838709674,0.427,0.122
42,5,10,0,0,0,0,0,13,104,40,80,1.463999999999999,5.855999999999995,0.488,0.5489999999999999,6,17,4,4,7,29,4,5,0,0,16,68,6.587999999999995,15,31,4,6,L,0.21189473684210525,0.20193103448275862,0.122,0.1098
43,1,1,0,0,0,0,0,34,1,67,86,3.598999999999997,2.622999999999998,18.604999999999986,0.366,14,7,17,3,24,7,74,3,0,0,18,118,10.308999999999992,17,54,4.5,6,L,0.1783076923076923,0.3747142857142856,0.2514189189189189,0.122
43,1,2,0,0,0,0,0,40,23,20,54,1.7079999999999989,4.208999999999997,7.9299999999999935,17.506999999999987,6,13,16,16,7,18,38,74,0,0,21,75,7.746999999999994,15,33,5.25,6,L,0.23637499999999997,0.2338333333333333,0.20868421052631578,0.23658108108108106
43,2,3,0,0,0,0,0,73,37,102,21,0.061,2.0739999999999985,0.5489999999999999,1.1589999999999994,1,8,4,5,1,9,4,5,0,0,16,46,28.547999999999977,19,139,4,6,L,0.20434999999999998,0.23044444444444442,0.13724999999999998,0.23179999999999998
43,2,4,0,0,0,0,0,118,71,4,1,0.7319999999999998,0.8539999999999996,0.5489999999999999,2.805999999999998,2,5,3,9,2,5,3,10,0,0,18,93,13.785999999999989,19,61,4.5,6,L,0.23044444444444442,0.1708,0.183,0.28059999999999996
43,3,5,0,0,0,0,0,30,59,74,12,1.4029999999999991,8.478999999999994,0.5489999999999999,0.366,5,17,3,2,7,48,3,2,0,0,18,51,9.759999999999993,13,43,4.5,6,L,0.22326,0.17664583333333334,0.183,0.183
43,3,6,0,0,0,0,0,42,112,38,20,0.122,0.6709999999999998,0.7929999999999997,1.1589999999999994,1,4,4,3,1,4,4,3,0,0,18,85,59.59699999999995,20,272,4.5,6,L,0.21875091575091574,0.16775,0.19824999999999998,0.3863333333333333
43,4,7,0,0,0,0,0,44,22,78,15,0.6709999999999998,0.122,0.5489999999999999,0.366,2,1,2,1,2,1,2,1,0,0,20,107,39.10099999999997,19,180,5,6,L,0.2185274725274725,0.122,0.27449999999999997,0.366
43,4,8,0,0,0,0,0,7,5,67,12,0.7929999999999997,2.9889999999999977,1.7689999999999988,0.061,3,8,7,1,3,12,7,1,0,0.5,40,8,20.190999999999985,19,93,5.5,6,L,0.21858333333333332,0.2490833333333333,0.25271428571428567,0.061
43,5,9,0,0,0,0,0,23,21,89,93,4.940999999999996,0.6099999999999999,3.0499999999999976,0.6099999999999999,14,3,12,3,19,4,14,3,0,0,18,13,11.467999999999991,17,64,4.5,6,L,0.19769879518072286,0.1525,0.21785714285714283,0.20333333333333334
43,5,10,0,0,0,0,0,56,25,26,5,36.72199999999997,0.122,0.6709999999999998,0.5489999999999999,18,1,2,2,158,1,2,2,0,0,20,3,5.550999999999996,16,29,5,6,L,0.22605882352941176,0.122,0.3355,0.27449999999999997
44,1,1,0,0,0,0,0,99,76,58,57,0.366,0.6099999999999999,0.5489999999999999,0.488,2,5,2,1,2,6,2,1,0,0,13,75,26.59599999999998,20,135,3.25,6,L,0.19680291970802918,0.10166666666666667,0.27449999999999997,0.488
44,1,2,0,0,0,0,0,115,113,111,43,3.2939999999999974,6.709999999999995,3.0499999999999976,7.9299999999999935,11,15,13,15,17,33,14,34,0,0.5,17,94,10.125999999999992,18,54,2.75,6,L,0.18901408450704224,0.2033333333333333,0.21785714285714286,0.23323529411764704
44,2,3,0,0,0,0,0,61,113,29,15,2.500999999999998,0.183,0.6709999999999998,0.366,9,1,5,2,11,1,5,2,0,0,17,88,14.212999999999989,20,83,4.25,6,L,0.17780851063829786,0.183,0.13419999999999999,0.183
44,2,4,0,0,0,0,0,11,6,79,46,0.061,5.550999999999996,46.237999999999964,0.427,1,11,17,2,1,15,201,2,0,0,20,40,13.41999999999999,17,60,5,6,L,0.22099999999999997,0.3700666666666666,0.23003980099502486,0.2135
44,3,5,0,0,0,0,0,86,45,21,46,0.122,0.061,4.391999999999997,0.244,1,1,15,2,1,1,21,2,0,0,19,48,39.22299999999997,20,183,4.75,6,L,0.21383152173913042,0.061,0.20914285714285713,0.122
44,3,6,0,0,0,0,0,34,4,7,11,0.427,0.183,0.6709999999999998,1.4029999999999991,4,2,6,6,4,2,6,7,0,0.5,41,109,32.45199999999998,20,148,5.75,6,L,0.21630921052631577,0.0915,0.11183333333333333,0.2004285714285714
44,4,7,0,0,0,0,0,117,118,13,43,4.025999999999997,1.4029999999999991,1.2199999999999993,11.345999999999991,13,3,8,16,22,3,8,53,0,0,15,113,6.953999999999994,11,36,3.75,6,L,0.18931034482758619,0.46766666666666656,0.1525,0.2140754716981132
44,4,8,0,0,0,0,0,80,2,10,5,4.208999999999997,2.622999999999998,1.3419999999999992,0.305,12,7,7,2,22,9,7,2,0,0.5,39,11,6.343999999999995,16,28,5.25,6,L,0.21106,0.2914444444444444,0.1917142857142857,0.1525
44,5,9,0,0,0,0,0,14,116,113,27,2.622999999999998,12.01699999999999,0.488,0.6709999999999998,8,18,1,1,10,64,1,1,0,0,15,15,9.820999999999993,19,60,3.75,6,L,0.17777142857142855,0.187765625,0.488,0.6709999999999998
44,5,10,0,0,0,0,0,78,67,4,46,2.500999999999998,0.244,0.305,7.502999999999994,10,2,2,12,13,2,2,47,0,0,18,97,12.99299999999999,13,54,4.5,6,L,0.23125373134328356,0.122,0.1525,0.1596382978723404
45,1,1,0,0,0,0,0,102,98,91,66,0.305,0.5489999999999999,1.0979999999999994,0.7929999999999997,2,2,5,4,2,2,6,4,0,0,11,90,36.05099999999997,20,160,2.75,6,L,0.22441975308641973,0.27449999999999997,0.183,0.19824999999999998
45,1,2,0,0,0,0,0,28,80,112,82,2.0739999999999985,0.122,1.3419999999999992,0.305,11,2,3,3,11,2,3,3,0,0,13,76,14.334999999999988,19,72,3.25,6,L,0.1976987951807229,0.061,0.44733333333333314,0.10166666666666667
45,2,3,0,0,0,0,0,25,111,116,115,0.305,1.8909999999999987,1.4029999999999991,0.366,2,8,6,4,2,8,8,4,0,0.5,17,85,43.37099999999997,20,205,2.75,6,L,0.2109951690821256,0.23637499999999995,0.175375,0.0915
45,2,4,0,0,0,0,0,38,84,77,42,1.0979999999999994,2.439999999999998,0.183,0.5489999999999999,3,9,1,3,3,11,1,3,0,0,16,39,31.780999999999974,19,140,4,6,L,0.2299230769230769,0.22181818181818178,0.183,0.183
45,3,5,0,0,0,0,0,4,11,108,68,4.7579999999999965,6.038999999999995,0.305,0.488,10,17,2,2,19,31,2,2,0,0,18,25,6.221999999999995,17,42,4.5,6,L,0.18,0.1948064516129032,0.1525,0.244
45,3,6,0,0,0,0,0,114,52,14,56,0.183,2.1349999999999985,1.463999999999999,16.713999999999988,1,7,6,15,1,7,6,81,0,0,16,117,9.027999999999993,17,37,4,6,L,0.24239473684210525,0.305,0.244,0.20634567901234566
45,4,7,0,0,0,0,0,21,13,109,81,2.3179999999999983,3.903999999999997,15.432999999999987,0.488,9,12,17,3,12,19,76,3,0,0,17,64,8.112999999999994,14,36,4.25,6,L,0.2173125,0.2054736842105263,0.2030657894736842,0.16266666666666665
45,4,8,0,0,0,0,0,92,46,57,59,0.183,0.122,0.5489999999999999,0.9759999999999995,2,1,3,5,2,1,3,6,0,0,16,37,50.32499999999996,19,220,4,6,L,0.2275135135135135,0.122,0.183,0.16266666666666665
45,5,9,0,0,0,0,0,44,37,19,46,1.8909999999999987,0.7929999999999997,1.2199999999999993,0.061,8,5,4,1,8,6,5,1,0,0.5,36,63,16.04299999999999,18,77,5.25,6,L,0.21098823529411762,0.13216666666666665,0.244,0.061
45,5,10,0,0,0,0,0,103,1,52,26,1.524999999999999,3.3549999999999973,0.183,0.6099999999999999,6,13,1,3,6,21,1,3,0,0,17,34,7.258999999999994,14,41,4.25,6,L,0.1868936170212766,0.15976190476190477,0.183,0.20333333333333334
46,1,1,0,0,0,0,0,67,9,74,77,0.7319999999999998,0.488,4.086999999999997,0.061,4,1,14,1,4,1,17,1,0,0,16,109,23.179999999999982,20,106,4,6,L,0.21738181818181815,0.488,0.24041176470588235,0.061
46,1,2,0,0,0,0,0,90,88,14,43,0.122,0.061,0.183,3.842999999999997,1,1,1,16,1,1,1,24,0,0,17,13,33.000999999999976,19,157,4.25,6,L,0.2096392405063291,0.061,0.183,0.160125
46,2,3,0,0,0,0,0,40,19,48,71,0.305,1.3419999999999992,2.2569999999999983,0.305,2,5,10,1,2,5,10,1,0,0,20,100,47.76299999999996,20,222,5,6,L,0.2145892857142857,0.2683999999999999,0.22569999999999998,0.305
46,2,4,0,0,0,0,0,51,3,2,35,0.5489999999999999,4.7579999999999965,2.9279999999999977,0.8539999999999996,1,14,11,8,1,23,12,9,0,0,21,27,16.835999999999988,19,87,5.25,6,L,0.19755681818181817,0.2068695652173913,0.24399999999999997,0.09488888888888888
46,3,5,0,0,0,0,0,87,85,37,111,2.500999999999998,2.3179999999999983,0.5489999999999999,2.1349999999999985,11,10,2,14,14,14,2,16,0,0,13,117,8.173999999999994,19,46,3.25,6,L,0.17791666666666667,0.16557142857142856,0.27449999999999997,0.1334375
46,3,6,0,0,0,0,0,104,83,75,30,0.6709999999999998,0.244,1.4029999999999991,2.9279999999999977,6,1,5,11,6,1,9,16,0,0,13,29,35.684999999999974,19,159,3.25,6,L,0.22033939393939392,0.244,0.15588888888888888,0.183
46,4,7,0,0,0,0,0,35,113,1,115,2.1349999999999985,1.8909999999999987,5.245999999999996,7.441999999999994,8,7,12,13,8,8,27,29,0,0,15,85,8.600999999999994,15,37,3.75,6,L,0.23857777777777775,0.23637499999999997,0.1942962962962963,0.2566206896551724
46,4,8,0,0,0,0,0,14,22,82,100,5.672999999999996,16.04299999999999,1.0979999999999994,0.122,14,16,6,2,30,69,6,2,0,0,17,84,3.4159999999999973,13,21,4.25,6,L,0.1782156862745098,0.23250724637681155,0.183,0.061
46,5,9,0,0,0,0,0,38,95,110,88,1.646999999999999,0.6099999999999999,1.585999999999999,0.7319999999999998,10,2,6,4,12,2,9,4,0,0,13,41,10.125999999999992,18,55,3.25,6,L,0.17571641791044776,0.305,0.17622222222222222,0.183
46,5,10,0,0,0,0,0,21,108,84,15,0.305,2.0739999999999985,0.366,2.0739999999999985,1,9,1,10,1,11,1,11,0,0,17,64,33.732999999999976,19,153,4.25,6,L,0.22102597402597401,0.18854545454545454,0.366,0.18854545454545454
47,1,1,0,0,0,0,0,5,40,61,117,1.7689999999999988,6.343999999999995,0.183,0.122,7,17,2,2,9,38,2,2,0,0,17,62,18.909999999999986,20,101,4.25,6,L,0.18799090909090907,0.16694736842105262,0.0915,0.061
47,1,2,0,0,0,0,0,79,83,74,101,2.439999999999998,2.1959999999999984,2.500999999999998,3.720999999999997,9,7,10,12,11,7,11,21,0,0.5,20,98,21.654999999999983,20,109,2.75,6,L,0.20079166666666665,0.31371428571428567,0.22736363636363635,0.17719047619047618
47,2,3,0,0,0,0,0,11,41,2,5,1.0979999999999994,6.770999999999995,3.2939999999999974,0.244,6,18,11,3,7,33,12,3,0,0.5,41,42,14.334999999999988,20,66,5.75,6,L,0.21141095890410957,0.20518181818181816,0.27449999999999997,0.08133333333333333
47,2,4,0,0,0,0,0,25,21,18,24,1.7689999999999988,3.903999999999997,8.539999999999994,14.944999999999988,9,10,17,16,12,12,41,55,0,0.5,41,29,20.983999999999984,19,95,5.75,6,L,0.2126448598130841,0.3253333333333333,0.20829268292682926,0.2717272727272727
47,3,5,0,0,0,0,0,9,96,87,7,0.427,2.8669999999999978,0.183,0.183,2,11,1,1,2,14,1,1,0,0,18,117,19.580999999999985,18,104,4.5,6,L,0.18875471698113208,0.20478571428571427,0.183,0.183
47,3,6,0,0,0,0,0,19,50,28,21,9.698999999999993,19.702999999999985,1.7689999999999988,0.305,14,17,8,1,49,75,8,1,0,0,21,25,8.234999999999994,17,44,5.25,6,L,0.19283870967741934,0.26270666666666664,0.221125,0.305
47,4,7,0,0,0,0,0,3,6,40,12,2.0129999999999986,3.0499999999999976,1.646999999999999,2.1349999999999985,9,11,5,11,11,17,6,17,0,0.5,41,10,7.380999999999994,15,39,5.75,6,L,0.18788,0.17941176470588233,0.27449999999999997,0.12558823529411764
47,4,8,0,0,0,0,0,19,90,30,16,0.061,0.183,0.6709999999999998,3.720999999999997,1,1,6,12,1,1,6,14,0,0,20,60,39.34499999999997,20,166,5,6,L,0.2359640718562874,0.183,0.11183333333333333,0.26578571428571424
47,5,9,0,0,0,0,0,53,51,20,45,0.183,1.585999999999999,4.6969999999999965,0.183,1,8,13,1,1,9,19,1,0,0,19,24,11.345999999999991,19,64,4.75,6,L,0.17736923076923078,0.17622222222222222,0.24721052631578946,0.183
47,5,10,0,0,0,0,0,4,8,29,2,0.6099999999999999,0.9149999999999996,0.9149999999999996,3.537999999999997,2,5,3,14,2,5,4,23,0,0.5,41,36,22.325999999999983,20,109,5.75,6,L,0.2066306306306306,0.183,0.22875,0.15382608695652172
48,1,1,0,0,0,0,0,94,8,72,1,0.7929999999999997,0.9759999999999995,3.3549999999999973,13.54199999999999,5,5,11,15,5,5,14,54,0,0,19,103,13.785999999999989,19,57,4.75,6,L,0.23514516129032256,0.19519999999999998,0.23964285714285713,0.25077777777777777
48,1,2,0,0,0,0,0,109,44,76,119,3.2329999999999974,0.244,0.8539999999999996,0.488,13,1,5,3,21,1,6,3,0,0,12,113,9.576999999999993,16,51,3,6,L,0.17791666666666667,0.244,0.14233333333333334,0.16266666666666665
48,2,3,0,0,0,0,0,51,5,93,46,0.427,0.183,0.6099999999999999,1.524999999999999,4,1,2,7,4,1,2,7,0,0,18,56,24.76599999999998,20,104,4.5,6,L,0.2332685185185185,0.183,0.305,0.21785714285714286
48,2,4,0,0,0,0,0,84,111,26,61,1.2809999999999993,0.061,1.646999999999999,2.8669999999999978,7,1,5,13,8,1,6,17,0,0,14,80,22.203999999999983,18,113,3.5,6,L,0.1940909090909091,0.061,0.27449999999999997,0.1686470588235294
48,3,5,0,0,0,0,0,10,9,95,44,0.244,1.0369999999999995,2.9889999999999977,0.7929999999999997,1,5,9,3,1,5,11,3,0,0,20,45,89.85300000000294,19,370,5,6,L,0.24284905660377357,0.2074,0.27172727272727265,0.2643333333333333
48,3,6,0,0,0,0,0,119,13,18,19,5.367999999999996,4.147999999999997,0.183,1.1589999999999994,16,13,1,7,27,19,1,7,0,0.5,38,15,13.23699999999999,17,60,5,6,L,0.21385057471264365,0.2183157894736842,0.183,0.16557142857142856
48,4,7,0,0,0,0,0,32,75,14,15,1.2809999999999993,3.4159999999999973,1.3419999999999992,0.5489999999999999,6,11,4,6,6,15,4,6,0,0,20,33,8.234999999999994,16,44,5,6,L,0.19032,0.22773333333333332,0.33549999999999996,0.0915
48,4,8,0,0,0,0,0,7,47,113,55,0.183,4.086999999999997,0.122,0.488,1,15,2,4,1,19,2,4,0,0,17,8,29.157999999999976,17,124,4.25,6,L,0.234728,0.21510526315789472,0.061,0.122
48,5,9,0,0,0,0,0,66,48,41,38,1.585999999999999,1.8299999999999987,1.1589999999999994,0.305,9,6,8,2,10,7,8,2,0,0.5,34,69,15.066999999999988,16,73,4.75,6,L,0.20063855421686747,0.2614285714285714,0.144875,0.1525
48,5,10,0,0,0,0,0,27,21,110,55,1.1589999999999994,5.489999999999996,5.367999999999996,0.9149999999999996,4,16,15,4,4,20,29,4,0,0,17,49,23.057999999999982,20,109,4.25,6,L,0.2143097345132743,0.27449999999999997,0.18510344827586206,0.22875
49,1,1,0,0,0,0,0,76,105,59,97,0.305,0.305,1.9519999999999986,0.244,1,1,5,1,1,1,5,1,0,0,11,37,25.37599999999998,20,122,2.75,6,L,0.20878861788617883,0.305,0.3903999999999999,0.244
